timestamp,ax,ay,az
2020-08-15 15:37:57.506494,-0.0302734375,-0.045654296875,0.982421875
2020-08-15 15:37:57.526221,-0.032958984375,-0.032958984375,0.98388671875
2020-08-15 15:37:57.546051,-0.0341796875,-0.016357421875,0.971435546875
2020-08-15 15:37:57.565642,-0.03369140625,-0.03125,0.97216796875
2020-08-15 15:37:57.585389,-0.0341796875,-0.04541015625,0.969482421875
2020-08-15 15:37:57.605052,-0.046142578125,-0.04638671875,0.975341796875
2020-08-15 15:37:57.624632,-0.031494140625,-0.03125,0.97216796875
2020-08-15 15:37:57.644166,-0.046142578125,-0.046875,0.972900390625
2020-08-15 15:37:57.663681,-0.027099609375,-0.03515625,0.975341796875
2020-08-15 15:37:57.683314,-0.029296875,-0.03271484375,0.97021484375
2020-08-15 15:37:57.703127,-0.029296875,-0.0283203125,0.97802734375
2020-08-15 15:37:57.723030,-0.030517578125,-0.0302734375,0.96923828125
2020-08-15 15:37:57.742493,-0.03271484375,-0.03369140625,0.973388671875
2020-08-15 15:37:57.762096,-0.034423828125,-0.030517578125,0.97314453125
2020-08-15 15:37:57.781844,-0.031005859375,-0.029296875,0.968505859375
2020-08-15 15:37:57.801495,-0.02880859375,-0.029052734375,0.970703125
2020-08-15 15:37:57.821445,-0.045654296875,-0.03369140625,0.97265625
2020-08-15 15:37:57.841085,-0.030517578125,-0.032958984375,0.983642578125
2020-08-15 15:37:57.860745,-0.02978515625,-0.029296875,0.965576171875
2020-08-15 15:37:57.880429,-0.029052734375,-0.026611328125,0.97119140625
2020-08-15 15:37:57.900122,-0.033203125,-0.04638671875,0.973876953125
2020-08-15 15:37:57.920050,-0.031982421875,-0.02880859375,0.96240234375
2020-08-15 15:37:57.939885,-0.028564453125,-0.01611328125,0.9658203125
2020-08-15 15:37:57.959487,-0.0322265625,-0.03076171875,0.972900390625
2020-08-15 15:37:57.980047,-0.02978515625,-0.0322265625,0.974853515625
2020-08-15 15:37:57.999807,-0.028564453125,-0.03076171875,0.97314453125
2020-08-15 15:37:58.019631,-0.033447265625,-0.02685546875,0.96923828125
2020-08-15 15:37:58.039378,-0.046875,-0.030029296875,0.974365234375
2020-08-15 15:37:58.059380,-0.0302734375,-0.045654296875,0.954833984375
2020-08-15 15:37:58.079073,-0.015869140625,-0.029052734375,0.970947265625
2020-08-15 15:37:58.098776,-0.033447265625,-0.033447265625,0.9677734375
2020-08-15 15:37:58.118578,-0.0322265625,-0.030517578125,0.974365234375
2020-08-15 15:37:58.138363,-0.02734375,-0.02880859375,0.973388671875
2020-08-15 15:37:58.158033,-0.032958984375,-0.03369140625,0.974609375
2020-08-15 15:37:58.177661,-0.033203125,-0.03125,0.972900390625
2020-08-15 15:37:58.197391,-0.030517578125,-0.03271484375,0.96923828125
2020-08-15 15:37:58.217155,-0.0458984375,-0.02880859375,0.97119140625
2020-08-15 15:37:58.236724,-0.019775390625,-0.03076171875,0.973876953125
2020-08-15 15:37:58.256371,-0.033447265625,-0.031005859375,0.968994140625
2020-08-15 15:37:58.276226,-0.0302734375,-0.029296875,0.98291015625
2020-08-15 15:37:58.295716,-0.032470703125,-0.028076171875,0.954345703125
2020-08-15 15:37:58.315393,-0.032958984375,-0.03125,0.96923828125
2020-08-15 15:37:58.335296,-0.017578125,-0.030517578125,0.970458984375
2020-08-15 15:37:58.354963,-0.030029296875,-0.026611328125,0.973388671875
2020-08-15 15:37:58.374506,-0.031005859375,-0.02880859375,0.97265625
2020-08-15 15:37:58.394123,-0.01611328125,-0.033203125,0.9658203125
2020-08-15 15:37:58.413705,-0.016845703125,-0.017822265625,0.974609375
2020-08-15 15:37:58.433823,-0.03271484375,-0.030517578125,0.973876953125
2020-08-15 15:37:58.453334,-0.0302734375,-0.031982421875,0.97412109375
2020-08-15 15:37:58.472884,-0.0302734375,-0.03271484375,0.9697265625
2020-08-15 15:37:58.492476,-0.033203125,-0.031982421875,0.969970703125
2020-08-15 15:37:58.512423,-0.03125,-0.0302734375,0.971923828125
2020-08-15 15:37:58.532173,-0.033203125,-0.034912109375,0.96728515625
2020-08-15 15:37:58.551875,-0.03173828125,-0.017333984375,0.971923828125
2020-08-15 15:37:58.571635,-0.046630859375,-0.0341796875,0.967041015625
2020-08-15 15:37:58.591207,-0.02880859375,-0.02978515625,0.970458984375
2020-08-15 15:37:58.610873,-0.046630859375,-0.030029296875,0.969970703125
2020-08-15 15:37:58.630528,-0.027587890625,-0.03125,0.975830078125
2020-08-15 15:37:58.650469,-0.0341796875,-0.02978515625,0.973876953125
2020-08-15 15:37:58.670216,-0.032958984375,-0.03125,0.973388671875
2020-08-15 15:37:58.689885,-0.044677734375,-0.0166015625,0.974853515625
2020-08-15 15:37:58.709435,-0.016357421875,-0.01708984375,0.96875
2020-08-15 15:37:58.729220,-0.036865234375,-0.02978515625,0.967041015625
2020-08-15 15:37:58.749330,-0.0322265625,-0.025146484375,0.972900390625
2020-08-15 15:37:58.769056,-0.030517578125,-0.03173828125,0.972412109375
2020-08-15 15:37:58.788764,-0.02880859375,-0.035400390625,0.96240234375
2020-08-15 15:37:58.808467,-0.030517578125,-0.03369140625,0.9716796875
2020-08-15 15:37:58.828349,-0.02783203125,-0.03076171875,0.962890625
2020-08-15 15:37:58.848697,-0.029541015625,-0.032470703125,0.974853515625
2020-08-15 15:37:58.868595,-0.031494140625,-0.02880859375,0.978271484375
2020-08-15 15:37:58.889036,-0.033447265625,-0.028564453125,0.966796875
2020-08-15 15:37:58.908746,-0.03466796875,-0.02783203125,0.977294921875
2020-08-15 15:37:58.928729,-0.0341796875,-0.025390625,0.96923828125
2020-08-15 15:37:58.948788,-0.033203125,-0.029541015625,0.969970703125
2020-08-15 15:37:58.968687,-0.04638671875,-0.034423828125,0.981201171875
2020-08-15 15:37:58.988320,-0.02978515625,-0.035400390625,0.975830078125
2020-08-15 15:37:59.008433,-0.0302734375,-0.031005859375,0.970947265625
2020-08-15 15:37:59.031399,-0.02978515625,-0.04638671875,0.971923828125
2020-08-15 15:37:59.051171,-0.02978515625,-0.031982421875,0.9775390625
2020-08-15 15:37:59.070933,-0.04638671875,-0.0283203125,0.97314453125
2020-08-15 15:37:59.090611,-0.032958984375,-0.031982421875,0.9736328125
2020-08-15 15:37:59.111864,-0.02978515625,-0.028564453125,0.97314453125
2020-08-15 15:37:59.131526,-0.016845703125,-0.032470703125,0.983154296875
2020-08-15 15:37:59.151767,-0.028076171875,-0.029052734375,0.971923828125
2020-08-15 15:37:59.171849,-0.034912109375,-0.0302734375,0.9716796875
2020-08-15 15:37:59.191410,-0.0185546875,-0.016845703125,0.97509765625
2020-08-15 15:37:59.210929,-0.031005859375,-0.030029296875,0.968017578125
2020-08-15 15:37:59.230586,-0.02978515625,-0.028564453125,0.9697265625
2020-08-15 15:37:59.250525,-0.0341796875,-0.0283203125,0.97216796875
2020-08-15 15:37:59.270337,-0.03173828125,-0.030029296875,0.978515625
2020-08-15 15:37:59.290008,-0.030029296875,-0.036376953125,0.96630859375
2020-08-15 15:37:59.309777,-0.031982421875,-0.015869140625,0.974609375
2020-08-15 15:37:59.329661,-0.032958984375,-0.028076171875,0.970947265625
2020-08-15 15:37:59.349479,-0.03369140625,-0.029052734375,0.954345703125
2020-08-15 15:37:59.369327,-0.036376953125,-0.03125,0.975341796875
2020-08-15 15:37:59.389370,-0.03515625,-0.031005859375,0.954345703125
2020-08-15 15:37:59.409057,-0.02880859375,-0.031982421875,0.972900390625
2020-08-15 15:37:59.429056,-0.03173828125,-0.031982421875,0.97265625
2020-08-15 15:37:59.448868,-0.02587890625,-0.0302734375,0.974853515625
2020-08-15 15:37:59.468506,-0.029541015625,-0.04638671875,0.9677734375
2020-08-15 15:37:59.488562,-0.028564453125,-0.03125,0.97216796875
2020-08-15 15:37:59.508407,-0.029296875,-0.04638671875,0.97412109375
2020-08-15 15:37:59.528242,-0.02978515625,-0.030029296875,0.96630859375
2020-08-15 15:37:59.547862,-0.031494140625,-0.030517578125,0.974853515625
2020-08-15 15:37:59.567699,-0.03466796875,-0.030029296875,0.97265625
2020-08-15 15:37:59.587471,-0.026611328125,-0.031005859375,0.97216796875
2020-08-15 15:37:59.607249,-0.03271484375,-0.03271484375,0.96533203125
2020-08-15 15:37:59.626981,-0.0322265625,-0.029052734375,0.969970703125
2020-08-15 15:37:59.646604,-0.029541015625,-0.03271484375,0.9697265625
2020-08-15 15:37:59.666624,-0.027099609375,-0.016357421875,0.961669921875
2020-08-15 15:37:59.686252,-0.016357421875,-0.03125,0.975830078125
2020-08-15 15:37:59.705931,-0.029541015625,-0.0322265625,0.96484375
2020-08-15 15:37:59.725522,-0.028564453125,-0.03125,0.96923828125
2020-08-15 15:37:59.745399,-0.0166015625,-0.0322265625,0.983154296875
2020-08-15 15:37:59.766081,-0.032958984375,-0.03076171875,0.967529296875
2020-08-15 15:37:59.785767,-0.032958984375,-0.02734375,0.963134765625
2020-08-15 15:37:59.805262,-0.032470703125,-0.029541015625,0.9697265625
2020-08-15 15:37:59.825231,-0.032958984375,-0.030029296875,0.96826171875
2020-08-15 15:37:59.844933,-0.032470703125,-0.032958984375,0.97314453125
2020-08-15 15:37:59.864565,-0.02978515625,-0.0322265625,0.9716796875
2020-08-15 15:37:59.884169,-0.031494140625,-0.032470703125,0.96923828125
2020-08-15 15:37:59.903802,-0.03125,-0.033203125,0.96923828125
2020-08-15 15:37:59.923354,-0.031005859375,-0.032958984375,0.971923828125
2020-08-15 15:37:59.942905,-0.03125,-0.03515625,0.97509765625
2020-08-15 15:37:59.962500,-0.02783203125,-0.034912109375,0.968994140625
2020-08-15 15:37:59.982069,-0.0283203125,-0.03515625,0.953857421875
2020-08-15 15:38:00.001873,-0.031005859375,-0.03125,0.97412109375
2020-08-15 15:38:00.021459,-0.03759765625,-0.032958984375,0.977783203125
2020-08-15 15:38:00.041146,-0.04345703125,-0.038330078125,0.972900390625
2020-08-15 15:38:00.061714,-0.040771484375,-0.047119140625,0.9697265625
2020-08-15 15:38:00.081362,-0.03857421875,-0.05712890625,0.971923828125
2020-08-15 15:38:00.100950,-0.017578125,-0.041015625,0.982421875
2020-08-15 15:38:00.120640,-0.0244140625,0.0029296875,0.97021484375
2020-08-15 15:38:00.140400,-0.01318359375,0.016845703125,0.94482421875
2020-08-15 15:38:00.160220,-0.02392578125,-0.005126953125,0.955322265625
2020-08-15 15:38:00.180140,-0.0400390625,-0.0458984375,0.97509765625
2020-08-15 15:38:00.199841,-0.0361328125,-0.071533203125,0.97607421875
2020-08-15 15:38:00.219518,-0.03515625,-0.0625,0.979248046875
2020-08-15 15:38:00.239383,-0.046875,-0.044677734375,0.969970703125
2020-08-15 15:38:00.259164,-0.03759765625,-0.0341796875,0.9833984375
2020-08-15 15:38:00.278959,-0.041259765625,-0.02587890625,0.981201171875
2020-08-15 15:38:00.298667,-0.033203125,-0.019775390625,0.95458984375
2020-08-15 15:38:00.318389,-0.03271484375,-0.00244140625,0.9599609375
2020-08-15 15:38:00.338242,-0.0263671875,-0.003662109375,0.965087890625
2020-08-15 15:38:00.357812,-0.029296875,-0.046875,0.953125
2020-08-15 15:38:00.377537,-0.033935546875,-0.062255859375,0.98779296875
2020-08-15 15:38:00.397249,-0.02490234375,-0.06787109375,0.97607421875
2020-08-15 15:38:00.416862,-0.019775390625,-0.043212890625,0.97412109375
2020-08-15 15:38:00.436396,-0.01220703125,-0.02001953125,0.96826171875
2020-08-15 15:38:00.455949,-0.025390625,-0.0107421875,0.96630859375
2020-08-15 15:38:00.475527,-0.041748046875,-0.02587890625,0.9658203125
2020-08-15 15:38:00.495168,-0.052001953125,-0.036865234375,0.98095703125
2020-08-15 15:38:00.514982,-0.04638671875,-0.038330078125,0.97216796875
2020-08-15 15:38:00.534606,-0.044921875,-0.030517578125,0.968994140625
2020-08-15 15:38:00.554496,-0.0263671875,-0.034912109375,0.97509765625
2020-08-15 15:38:00.574033,-0.033935546875,-0.04736328125,0.97509765625
2020-08-15 15:38:00.593690,-0.02099609375,-0.045654296875,0.97216796875
2020-08-15 15:38:00.613321,-0.01025390625,-0.026123046875,0.96435546875
2020-08-15 15:38:00.633413,-0.01416015625,-0.013671875,0.95947265625
2020-08-15 15:38:00.652981,-0.001708984375,-0.0166015625,0.95703125
2020-08-15 15:38:00.672674,-0.033447265625,-0.03857421875,0.95556640625
2020-08-15 15:38:00.692894,-0.0458984375,-0.048095703125,0.993408203125
2020-08-15 15:38:00.712575,-0.048583984375,-0.041259765625,0.972900390625
2020-08-15 15:38:00.732334,-0.04931640625,-0.030029296875,0.976318359375
2020-08-15 15:38:00.751982,-0.037109375,-0.025390625,0.966552734375
2020-08-15 15:38:00.771911,-0.038330078125,-0.02734375,0.955322265625
2020-08-15 15:38:00.792262,-0.0263671875,-0.030029296875,0.967041015625
2020-08-15 15:38:00.811371,-0.015380859375,-0.02783203125,0.968017578125
2020-08-15 15:38:00.831266,-0.016845703125,-0.019775390625,0.9736328125
2020-08-15 15:38:00.850875,-0.013916015625,-0.02685546875,0.972900390625
2020-08-15 15:38:00.870534,-0.026123046875,-0.043701171875,0.955322265625
2020-08-15 15:38:00.890216,-0.03564453125,-0.054443359375,0.978515625
2020-08-15 15:38:00.910325,-0.039306640625,-0.04833984375,0.9697265625
2020-08-15 15:38:00.930062,-0.040771484375,-0.031005859375,0.963134765625
2020-08-15 15:38:00.949851,-0.037109375,-0.016357421875,0.9638671875
2020-08-15 15:38:00.969589,-0.0390625,-0.013671875,0.9697265625
2020-08-15 15:38:00.989240,-0.03564453125,-0.022705078125,0.9638671875
2020-08-15 15:38:01.013904,-0.032470703125,-0.030517578125,0.969482421875
2020-08-15 15:38:01.032029,-0.02587890625,-0.03515625,0.97412109375
2020-08-15 15:38:01.050062,-0.0244140625,-0.060791015625,0.968505859375
2020-08-15 15:38:01.068099,-0.02001953125,-0.053466796875,0.975830078125
2020-08-15 15:38:01.086011,-0.020263671875,-0.05224609375,0.964111328125
2020-08-15 15:38:01.112018,-0.026123046875,-0.035888671875,0.968994140625
2020-08-15 15:38:01.131929,-0.03515625,-0.000732421875,0.96484375
2020-08-15 15:38:01.151528,-0.0400390625,-0.013427734375,0.95458984375
2020-08-15 15:38:01.171193,-0.048095703125,-0.016845703125,0.966796875
2020-08-15 15:38:01.190774,-0.04248046875,-0.033203125,0.9677734375
2020-08-15 15:38:01.210379,-0.037841796875,-0.038818359375,0.976318359375
2020-08-15 15:38:01.230054,-0.027587890625,-0.04150390625,0.9775390625
2020-08-15 15:38:01.249772,-0.025146484375,-0.0439453125,0.971435546875
2020-08-15 15:38:01.269618,-0.03125,-0.037841796875,0.970703125
2020-08-15 15:38:01.289596,-0.0166015625,-0.033447265625,0.96728515625
2020-08-15 15:38:01.309734,-0.0234375,-0.020751953125,0.969970703125
2020-08-15 15:38:01.329440,-0.035400390625,-0.019775390625,0.95361328125
2020-08-15 15:38:01.349257,-0.04345703125,-0.02685546875,0.975830078125
2020-08-15 15:38:01.369094,-0.04443359375,-0.03466796875,0.9697265625
2020-08-15 15:38:01.388766,-0.042236328125,-0.04248046875,0.973388671875
2020-08-15 15:38:01.409027,-0.034423828125,-0.037353515625,0.9794921875
2020-08-15 15:38:01.428682,-0.043701171875,-0.034423828125,0.975830078125
2020-08-15 15:38:01.448356,-0.021728515625,-0.0302734375,0.953125
2020-08-15 15:38:01.468382,-0.024169921875,-0.018310546875,0.963134765625
2020-08-15 15:38:01.488310,-0.019287109375,-0.033935546875,0.970947265625
2020-08-15 15:38:01.508433,-0.02734375,-0.02880859375,0.971435546875
2020-08-15 15:38:01.528155,-0.031494140625,-0.030029296875,0.9658203125
2020-08-15 15:38:01.548016,-0.038330078125,-0.0341796875,0.974609375
2020-08-15 15:38:01.567396,-0.03759765625,-0.03857421875,0.975341796875
2020-08-15 15:38:01.587086,-0.03759765625,-0.041748046875,0.96630859375
2020-08-15 15:38:01.606631,-0.03271484375,-0.029541015625,0.968505859375
2020-08-15 15:38:01.626260,-0.025634765625,-0.02392578125,0.971435546875
2020-08-15 15:38:01.645965,-0.0283203125,-0.02392578125,0.96630859375
2020-08-15 15:38:01.665505,-0.02978515625,-0.031494140625,0.962890625
2020-08-15 15:38:01.685027,-0.030029296875,-0.0361328125,0.974365234375
2020-08-15 15:38:01.704803,-0.034912109375,-0.028564453125,0.974853515625
2020-08-15 15:38:01.724534,-0.015869140625,-0.030517578125,0.96630859375
2020-08-15 15:38:01.744132,-0.0361328125,-0.018310546875,0.968994140625
2020-08-15 15:38:01.763902,-0.03466796875,-0.035888671875,0.970947265625
2020-08-15 15:38:01.783476,-0.035400390625,-0.031005859375,0.970703125
2020-08-15 15:38:01.803129,-0.044677734375,-0.027587890625,0.980712890625
2020-08-15 15:38:01.822559,-0.029296875,-0.02734375,0.970458984375
2020-08-15 15:38:01.842206,-0.046142578125,-0.028076171875,0.97314453125
2020-08-15 15:38:01.861783,-0.03076171875,-0.037353515625,0.967041015625
2020-08-15 15:38:01.881439,-0.031494140625,-0.040771484375,0.9775390625
2020-08-15 15:38:01.901229,-0.017578125,-0.04150390625,0.96875
2020-08-15 15:38:01.920923,-0.027587890625,-0.03564453125,0.974365234375
2020-08-15 15:38:01.940782,-0.027587890625,-0.0302734375,0.966552734375
2020-08-15 15:38:01.960278,-0.02734375,-0.027587890625,0.968505859375
2020-08-15 15:38:01.980052,-0.033203125,-0.0283203125,0.96728515625
2020-08-15 15:38:01.999795,-0.03515625,-0.021728515625,0.9677734375
2020-08-15 15:38:02.019881,-0.0458984375,-0.024658203125,0.9765625
2020-08-15 15:38:02.040221,-0.035400390625,-0.038330078125,0.97607421875
2020-08-15 15:38:02.060105,-0.033447265625,-0.04638671875,0.98095703125
2020-08-15 15:38:02.080059,-0.0302734375,-0.04736328125,0.978759765625
2020-08-15 15:38:02.099778,-0.02880859375,-0.034912109375,0.97021484375
2020-08-15 15:38:02.119847,-0.02490234375,-0.021240234375,0.967529296875
2020-08-15 15:38:02.139921,-0.031982421875,-0.025634765625,0.9716796875
2020-08-15 15:38:02.159765,-0.0361328125,-0.024169921875,0.972900390625
2020-08-15 15:38:02.179587,-0.03857421875,-0.02587890625,0.96533203125
2020-08-15 15:38:02.199272,-0.0390625,-0.033935546875,0.972900390625
2020-08-15 15:38:02.219005,-0.033203125,-0.033935546875,0.971923828125
2020-08-15 15:38:02.238755,-0.03271484375,-0.037109375,0.971923828125
2020-08-15 15:38:02.258587,-0.029541015625,-0.034423828125,0.969970703125
2020-08-15 15:38:02.278139,-0.028564453125,-0.032958984375,0.97509765625
2020-08-15 15:38:02.297236,-0.029052734375,-0.033203125,0.955078125
2020-08-15 15:38:02.316872,-0.035888671875,-0.0234375,0.973388671875
2020-08-15 15:38:02.336600,-0.033203125,-0.028076171875,0.96875
2020-08-15 15:38:02.356191,-0.038330078125,-0.036865234375,0.97216796875
2020-08-15 15:38:02.375606,-0.03466796875,-0.016845703125,0.974365234375
2020-08-15 15:38:02.395317,-0.037841796875,-0.031494140625,0.97412109375
2020-08-15 15:38:02.414938,-0.029296875,-0.0166015625,0.980712890625
2020-08-15 15:38:02.434722,-0.026611328125,-0.035400390625,0.975830078125
2020-08-15 15:38:02.454275,-0.025634765625,-0.033203125,0.9677734375
2020-08-15 15:38:02.473947,-0.027099609375,-0.0322265625,0.98388671875
2020-08-15 15:38:02.494020,-0.02978515625,-0.030029296875,0.9697265625
2020-08-15 15:38:02.513880,-0.033447265625,-0.0302734375,0.97265625
2020-08-15 15:38:02.533706,-0.036865234375,-0.03271484375,0.9765625
2020-08-15 15:38:02.553416,-0.040283203125,-0.0341796875,0.9775390625
2020-08-15 15:38:02.573100,-0.03466796875,-0.034423828125,0.95849609375
2020-08-15 15:38:02.592712,-0.031005859375,-0.01611328125,0.9736328125
2020-08-15 15:38:02.612348,-0.0263671875,-0.031494140625,0.969970703125
2020-08-15 15:38:02.632586,-0.0234375,-0.017822265625,0.975341796875
2020-08-15 15:38:02.652541,-0.032958984375,-0.031494140625,0.970458984375
2020-08-15 15:38:02.672136,-0.046875,-0.033935546875,0.97265625
2020-08-15 15:38:02.691830,-0.029052734375,-0.03466796875,0.982177734375
2020-08-15 15:38:02.711284,-0.030517578125,-0.034912109375,0.974853515625
2020-08-15 15:38:02.730974,-0.03759765625,-0.036376953125,0.97607421875
2020-08-15 15:38:02.750680,-0.03271484375,-0.036865234375,0.969970703125
2020-08-15 15:38:02.770327,-0.0283203125,-0.030517578125,0.965576171875
2020-08-15 15:38:02.790095,-0.0166015625,-0.028564453125,0.974365234375
2020-08-15 15:38:02.809843,-0.032470703125,-0.02783203125,0.969970703125
2020-08-15 15:38:02.829702,-0.03173828125,-0.028564453125,0.971923828125
2020-08-15 15:38:02.849488,-0.0322265625,-0.03369140625,0.9716796875
2020-08-15 15:38:02.869284,-0.033447265625,-0.036376953125,0.972412109375
2020-08-15 15:38:02.888951,-0.0458984375,-0.037109375,0.98193359375
2020-08-15 15:38:02.908672,-0.04443359375,-0.032958984375,0.97216796875
2020-08-15 15:38:02.928315,-0.029541015625,-0.0322265625,0.97216796875
2020-08-15 15:38:02.948200,-0.026611328125,-0.031494140625,0.974609375
2020-08-15 15:38:02.967804,-0.031005859375,-0.031005859375,0.971923828125
2020-08-15 15:38:02.987371,-0.031494140625,-0.02685546875,0.984130859375
2020-08-15 15:38:03.007013,-0.032958984375,-0.02880859375,0.9736328125
2020-08-15 15:38:03.026622,-0.028564453125,-0.031982421875,0.955322265625
2020-08-15 15:38:03.046929,-0.03564453125,-0.031982421875,0.975341796875
2020-08-15 15:38:03.066520,-0.015869140625,-0.0361328125,0.98046875
2020-08-15 15:38:03.086287,-0.02685546875,-0.035400390625,0.972900390625
2020-08-15 15:38:03.106116,-0.027587890625,-0.02978515625,0.976318359375
2020-08-15 15:38:03.125628,-0.029296875,-0.029541015625,0.970703125
2020-08-15 15:38:03.145770,-0.028076171875,-0.02978515625,0.97216796875
2020-08-15 15:38:03.165415,-0.033447265625,-0.033935546875,0.974365234375
2020-08-15 15:38:03.188370,-0.033203125,-0.030517578125,0.972412109375
2020-08-15 15:38:03.207712,-0.036865234375,-0.031005859375,0.96826171875
2020-08-15 15:38:03.227437,-0.044189453125,-0.0322265625,0.97265625
2020-08-15 15:38:03.247306,-0.03076171875,-0.03662109375,0.978515625
2020-08-15 15:38:03.266993,-0.030517578125,-0.033447265625,0.973876953125
2020-08-15 15:38:03.286487,-0.029296875,-0.015869140625,0.975830078125
2020-08-15 15:38:03.306178,-0.028076171875,-0.03271484375,0.967529296875
2020-08-15 15:38:03.325699,-0.03271484375,-0.030517578125,0.972900390625
2020-08-15 15:38:03.345290,-0.031982421875,-0.034423828125,0.972412109375
2020-08-15 15:38:03.364880,-0.033203125,-0.02880859375,0.967041015625
2020-08-15 15:38:03.384478,-0.031494140625,-0.01708984375,0.973876953125
2020-08-15 15:38:03.404185,-0.030517578125,-0.0302734375,0.973876953125
2020-08-15 15:38:03.423646,-0.01611328125,-0.035400390625,0.966064453125
2020-08-15 15:38:03.443323,-0.029296875,-0.035888671875,0.969482421875
2020-08-15 15:38:03.462854,-0.02783203125,-0.02880859375,0.962646484375
2020-08-15 15:38:03.482540,-0.026123046875,-0.030029296875,0.983642578125
2020-08-15 15:38:03.502113,-0.03271484375,-0.031982421875,0.966552734375
2020-08-15 15:38:03.521890,-0.04443359375,-0.03271484375,0.9697265625
2020-08-15 15:38:03.541451,-0.032958984375,-0.029296875,0.971923828125
2020-08-15 15:38:03.561447,-0.03125,-0.030517578125,0.95361328125
2020-08-15 15:38:03.580997,-0.03466796875,-0.030029296875,0.972900390625
2020-08-15 15:38:03.600757,-0.046142578125,-0.04296875,0.972412109375
2020-08-15 15:38:03.620649,-0.016357421875,-0.027587890625,0.953369140625
2020-08-15 15:38:03.640274,-0.02978515625,-0.046875,0.971435546875
2020-08-15 15:38:03.660299,-0.032470703125,-0.029541015625,0.965576171875
2020-08-15 15:38:03.679931,-0.032470703125,-0.02880859375,0.97021484375
2020-08-15 15:38:03.699805,-0.0322265625,-0.03125,0.969970703125
2020-08-15 15:38:03.719526,-0.017822265625,-0.03662109375,0.971435546875
2020-08-15 15:38:03.739243,-0.031494140625,-0.031005859375,0.973388671875
2020-08-15 15:38:03.759432,-0.02587890625,-0.02734375,0.967041015625
2020-08-15 15:38:03.779200,-0.030517578125,-0.029296875,0.97021484375
2020-08-15 15:38:03.798908,-0.034912109375,-0.025390625,0.969482421875
2020-08-15 15:38:03.818623,-0.017578125,-0.017578125,0.98388671875
2020-08-15 15:38:03.838342,-0.03271484375,-0.0341796875,0.972900390625
2020-08-15 15:38:03.857889,-0.029296875,-0.034912109375,0.97021484375
2020-08-15 15:38:03.877621,-0.025634765625,-0.035888671875,0.978515625
2020-08-15 15:38:03.897154,-0.015869140625,-0.016845703125,0.976318359375
2020-08-15 15:38:03.916799,-0.029541015625,-0.033447265625,0.9677734375
2020-08-15 15:38:03.936381,-0.046875,-0.045654296875,0.9658203125
2020-08-15 15:38:03.955932,-0.02880859375,-0.029296875,0.95458984375
2020-08-15 15:38:03.975316,-0.03515625,-0.030517578125,0.96923828125
2020-08-15 15:38:03.994678,-0.031982421875,-0.031005859375,0.969482421875
2020-08-15 15:38:04.014239,-0.037841796875,-0.032958984375,0.975341796875
2020-08-15 15:38:04.033844,-0.035888671875,-0.033203125,0.974609375
2020-08-15 15:38:04.053459,-0.02685546875,-0.033447265625,0.95361328125
2020-08-15 15:38:04.073782,-0.029296875,-0.035400390625,0.96240234375
2020-08-15 15:38:04.093328,-0.027587890625,-0.046875,0.984130859375
2020-08-15 15:38:04.112907,-0.02880859375,-0.034423828125,0.97021484375
2020-08-15 15:38:04.132615,-0.028564453125,-0.0341796875,0.974365234375
2020-08-15 15:38:04.152803,-0.03369140625,-0.031005859375,0.969970703125
2020-08-15 15:38:04.172755,-0.03564453125,-0.03076171875,0.97705078125
2020-08-15 15:38:04.192367,-0.037841796875,-0.029052734375,0.971923828125
2020-08-15 15:38:04.211811,-0.038330078125,-0.029052734375,0.955078125
2020-08-15 15:38:04.231409,-0.0302734375,-0.03271484375,0.971923828125
2020-08-15 15:38:04.250989,-0.02685546875,-0.0439453125,0.9736328125
2020-08-15 15:38:04.271088,-0.027099609375,-0.031494140625,0.96435546875
2020-08-15 15:38:04.291418,-0.0244140625,-0.035400390625,0.9697265625
2020-08-15 15:38:04.311010,-0.029296875,-0.0361328125,0.969482421875
2020-08-15 15:38:04.330753,-0.033203125,-0.033447265625,0.975341796875
2020-08-15 15:38:04.350556,-0.0322265625,-0.031005859375,0.968505859375
2020-08-15 15:38:04.370278,-0.037841796875,-0.029296875,0.982666015625
2020-08-15 15:38:04.389930,-0.035888671875,-0.026611328125,0.9541015625
2020-08-15 15:38:04.409644,-0.0302734375,-0.029296875,0.96875
2020-08-15 15:38:04.429308,-0.031005859375,-0.030029296875,0.966796875
2020-08-15 15:38:04.449135,-0.04052734375,-0.030517578125,0.97119140625
2020-08-15 15:38:04.468884,-0.025146484375,-0.0322265625,0.976806640625
2020-08-15 15:38:04.488684,-0.03173828125,-0.0341796875,0.970947265625
2020-08-15 15:38:04.508329,-0.028076171875,-0.0361328125,0.973388671875
2020-08-15 15:38:04.527617,-0.035400390625,-0.033203125,0.970458984375
2020-08-15 15:38:04.547391,-0.0361328125,-0.027587890625,0.97265625
2020-08-15 15:38:04.567015,-0.0361328125,-0.029541015625,0.953857421875
2020-08-15 15:38:04.586653,-0.03369140625,-0.030029296875,0.96533203125
2020-08-15 15:38:04.605580,-0.046875,-0.029052734375,0.968994140625
2020-08-15 15:38:04.625278,-0.030029296875,-0.031005859375,0.96484375
2020-08-15 15:38:04.644867,-0.02978515625,-0.041015625,0.971923828125
2020-08-15 15:38:04.664530,-0.025634765625,-0.0400390625,0.966552734375
2020-08-15 15:38:04.684316,-0.02978515625,-0.034423828125,0.968505859375
2020-08-15 15:38:04.703785,-0.03271484375,-0.0185546875,0.97705078125
2020-08-15 15:38:04.723462,-0.0322265625,-0.032958984375,0.966796875
2020-08-15 15:38:04.743012,-0.0322265625,-0.028564453125,0.968017578125
2020-08-15 15:38:04.762672,-0.03271484375,-0.0302734375,0.96728515625
2020-08-15 15:38:04.782750,-0.035888671875,-0.02783203125,0.96826171875
2020-08-15 15:38:04.802445,-0.029052734375,-0.030517578125,0.975830078125
2020-08-15 15:38:04.822004,-0.028564453125,-0.033447265625,0.979248046875
2020-08-15 15:38:04.841731,-0.0302734375,-0.038818359375,0.97412109375
2020-08-15 15:38:04.861278,-0.02978515625,-0.038330078125,0.981201171875
2020-08-15 15:38:04.880893,-0.0302734375,-0.032470703125,0.970703125
2020-08-15 15:38:04.901121,-0.0244140625,-0.03125,0.96728515625
2020-08-15 15:38:04.920845,-0.030029296875,-0.02978515625,0.97705078125
2020-08-15 15:38:04.940581,-0.02880859375,-0.030517578125,0.970947265625
2020-08-15 15:38:04.960098,-0.031005859375,-0.03466796875,0.972412109375
2020-08-15 15:38:04.979793,-0.034423828125,-0.0361328125,0.956298828125
2020-08-15 15:38:04.999490,-0.031005859375,-0.034423828125,0.97021484375
2020-08-15 15:38:05.019229,-0.033203125,-0.03271484375,0.976318359375
2020-08-15 15:38:05.038678,-0.04443359375,-0.035400390625,0.97119140625
2020-08-15 15:38:05.058478,-0.025634765625,-0.031982421875,0.96923828125
2020-08-15 15:38:05.078329,-0.0263671875,-0.028564453125,0.968994140625
2020-08-15 15:38:05.098289,-0.030517578125,-0.04638671875,0.96630859375
2020-08-15 15:38:05.117759,-0.025634765625,-0.0283203125,0.96923828125
2020-08-15 15:38:05.137621,-0.030029296875,-0.032958984375,0.95458984375
2020-08-15 15:38:05.157323,-0.032470703125,-0.03369140625,0.974609375
2020-08-15 15:38:05.176993,-0.0322265625,-0.034912109375,0.97509765625
2020-08-15 15:38:05.196729,-0.01708984375,-0.02734375,0.97265625
2020-08-15 15:38:05.216154,-0.0302734375,-0.034912109375,0.98046875
2020-08-15 15:38:05.235702,-0.016357421875,-0.028564453125,0.983154296875
2020-08-15 15:38:05.255248,-0.02294921875,-0.029052734375,0.96435546875
2020-08-15 15:38:05.275058,-0.028076171875,-0.02783203125,0.9697265625
2020-08-15 15:38:05.295133,-0.02685546875,-0.028076171875,0.974853515625
2020-08-15 15:38:05.314685,-0.01708984375,-0.033935546875,0.972412109375
2020-08-15 15:38:05.334330,-0.033935546875,-0.031005859375,0.97021484375
2020-08-15 15:38:05.353927,-0.0458984375,-0.0341796875,0.974853515625
2020-08-15 15:38:05.373624,-0.03466796875,-0.046630859375,0.96875
2020-08-15 15:38:05.393460,-0.032470703125,-0.029541015625,0.963134765625
2020-08-15 15:38:05.413036,-0.03271484375,-0.02783203125,0.965087890625
2020-08-15 15:38:05.432610,-0.0263671875,-0.0166015625,0.972412109375
2020-08-15 15:38:05.452264,-0.0263671875,-0.03466796875,0.972412109375
2020-08-15 15:38:05.471843,-0.02734375,-0.035400390625,0.9775390625
2020-08-15 15:38:05.491448,-0.03271484375,-0.03662109375,0.976318359375
2020-08-15 15:38:05.511333,-0.033935546875,-0.032958984375,0.9775390625
2020-08-15 15:38:05.530389,-0.030517578125,-0.033447265625,0.9775390625
2020-08-15 15:38:05.550157,-0.03173828125,-0.02880859375,0.972412109375
2020-08-15 15:38:05.569963,-0.015869140625,-0.02978515625,0.96728515625
2020-08-15 15:38:05.589144,-0.045166015625,-0.025146484375,0.967041015625
2020-08-15 15:38:05.609087,-0.029052734375,-0.029296875,0.971435546875
2020-08-15 15:38:05.628142,-0.01611328125,-0.034423828125,0.97265625
2020-08-15 15:38:05.647803,-0.029541015625,-0.037353515625,0.96533203125
2020-08-15 15:38:05.667545,-0.029052734375,-0.036865234375,0.97509765625
2020-08-15 15:38:05.687333,-0.02978515625,-0.0380859375,0.97802734375
2020-08-15 15:38:05.706798,-0.028564453125,-0.028564453125,0.97021484375
2020-08-15 15:38:05.726258,-0.04638671875,-0.01611328125,0.968994140625
2020-08-15 15:38:05.746220,-0.0302734375,-0.028564453125,0.969482421875
2020-08-15 15:38:05.766009,-0.033203125,-0.030029296875,0.97119140625
2020-08-15 15:38:05.785819,-0.017822265625,-0.0302734375,0.97021484375
2020-08-15 15:38:05.805344,-0.04638671875,-0.034423828125,0.970947265625
2020-08-15 15:38:05.824959,-0.029541015625,-0.032958984375,0.968505859375
2020-08-15 15:38:05.844566,-0.027099609375,-0.034912109375,0.97412109375
2020-08-15 15:38:05.864439,-0.0322265625,-0.037353515625,0.983642578125
2020-08-15 15:38:05.884154,-0.03271484375,-0.03564453125,0.969482421875
2020-08-15 15:38:05.903825,-0.03076171875,-0.03125,0.97314453125
2020-08-15 15:38:05.923490,-0.019287109375,-0.03271484375,0.982421875
2020-08-15 15:38:05.943166,-0.037841796875,-0.044677734375,0.970947265625
2020-08-15 15:38:05.962835,-0.029296875,-0.034912109375,0.965087890625
2020-08-15 15:38:05.982565,-0.03173828125,-0.033935546875,0.968994140625
2020-08-15 15:38:06.002163,-0.03271484375,-0.02880859375,0.975830078125
2020-08-15 15:38:06.021810,-0.037109375,-0.034912109375,0.978515625
2020-08-15 15:38:06.041380,-0.03466796875,-0.03369140625,0.96923828125
2020-08-15 15:38:06.060884,-0.0341796875,-0.034423828125,0.966552734375
2020-08-15 15:38:06.080593,-0.028076171875,-0.0283203125,0.954345703125
2020-08-15 15:38:06.100860,-0.030029296875,-0.033203125,0.963623046875
2020-08-15 15:38:06.120941,-0.03076171875,-0.018798828125,0.971923828125
2020-08-15 15:38:06.142340,-0.044189453125,-0.037109375,0.968505859375
2020-08-15 15:38:06.162267,-0.03076171875,-0.03466796875,0.97509765625
2020-08-15 15:38:06.181831,-0.034423828125,-0.033447265625,0.972412109375
2020-08-15 15:38:06.200917,-0.031982421875,-0.031982421875,0.980712890625
2020-08-15 15:38:06.220547,-0.0302734375,-0.046875,0.966552734375
2020-08-15 15:38:06.240201,-0.02880859375,-0.032958984375,0.982666015625
2020-08-15 15:38:06.259836,-0.02978515625,-0.029541015625,0.9716796875
2020-08-15 15:38:06.279556,-0.03076171875,-0.01611328125,0.9716796875
2020-08-15 15:38:06.300143,-0.031982421875,-0.033203125,0.9736328125
2020-08-15 15:38:06.320330,-0.032470703125,-0.03515625,0.966552734375
2020-08-15 15:38:06.339897,-0.03564453125,-0.0341796875,0.972900390625
2020-08-15 15:38:06.359614,-0.035400390625,-0.029541015625,0.970703125
2020-08-15 15:38:06.379341,-0.032958984375,-0.0263671875,0.968994140625
2020-08-15 15:38:06.399158,-0.031494140625,-0.046875,0.960693359375
2020-08-15 15:38:06.418840,-0.029296875,-0.03173828125,0.971923828125
2020-08-15 15:38:06.438551,-0.029541015625,-0.031494140625,0.970947265625
2020-08-15 15:38:06.458189,-0.02783203125,-0.0302734375,0.973876953125
2020-08-15 15:38:06.477844,-0.031982421875,-0.036865234375,0.97119140625
2020-08-15 15:38:06.497599,-0.031005859375,-0.032470703125,0.969482421875
2020-08-15 15:38:06.517282,-0.033203125,-0.03271484375,0.96875
2020-08-15 15:38:06.537710,-0.03369140625,-0.02978515625,0.968017578125
2020-08-15 15:38:06.557448,-0.03076171875,-0.027099609375,0.966796875
2020-08-15 15:38:06.577110,-0.033935546875,-0.029296875,0.976318359375
2020-08-15 15:38:06.596643,-0.02783203125,-0.030029296875,0.96826171875
2020-08-15 15:38:06.616172,-0.030517578125,-0.033203125,0.9736328125
2020-08-15 15:38:06.635831,-0.02978515625,-0.03369140625,0.975341796875
2020-08-15 15:38:06.655631,-0.031982421875,-0.028076171875,0.97119140625
2020-08-15 15:38:06.675327,-0.0166015625,-0.046630859375,0.97412109375
2020-08-15 15:38:06.694807,-0.046630859375,-0.0283203125,0.974365234375
2020-08-15 15:38:06.714429,-0.027587890625,-0.028076171875,0.97021484375
2020-08-15 15:38:06.734344,-0.01904296875,-0.029541015625,0.967041015625
2020-08-15 15:38:06.754038,-0.0302734375,-0.028076171875,0.95703125
2020-08-15 15:38:06.773744,-0.031982421875,-0.027099609375,0.972412109375
2020-08-15 15:38:06.793747,-0.03173828125,-0.03515625,0.974609375
2020-08-15 15:38:06.813376,-0.025390625,-0.03564453125,0.976806640625
2020-08-15 15:38:06.833480,-0.031005859375,-0.032958984375,0.974853515625
2020-08-15 15:38:06.853039,-0.027587890625,-0.046142578125,0.9833984375
2020-08-15 15:38:06.872624,-0.029296875,-0.032958984375,0.97265625
2020-08-15 15:38:06.892329,-0.033203125,-0.03173828125,0.96630859375
2020-08-15 15:38:06.911974,-0.029296875,-0.0263671875,0.96826171875
2020-08-15 15:38:06.931654,-0.0322265625,-0.0322265625,0.962646484375
2020-08-15 15:38:06.951213,-0.032958984375,-0.027587890625,0.9677734375
2020-08-15 15:38:06.970848,-0.033447265625,-0.0322265625,0.982666015625
2020-08-15 15:38:06.990521,-0.035400390625,-0.03564453125,0.969482421875
2020-08-15 15:38:07.010368,-0.028564453125,-0.032470703125,0.969482421875
2020-08-15 15:38:07.030002,-0.02734375,-0.032470703125,0.97021484375
2020-08-15 15:38:07.049577,-0.027099609375,-0.031494140625,0.962158203125
2020-08-15 15:38:07.069163,-0.028076171875,-0.0341796875,0.967529296875
2020-08-15 15:38:07.088664,-0.015869140625,-0.0302734375,0.970458984375
2020-08-15 15:38:07.110049,-0.032958984375,-0.031982421875,0.974609375
2020-08-15 15:38:07.131669,-0.03173828125,-0.033447265625,0.971923828125
2020-08-15 15:38:07.151060,-0.0302734375,-0.031005859375,0.971923828125
2020-08-15 15:38:07.170267,-0.034912109375,-0.01904296875,0.954833984375
2020-08-15 15:38:07.189723,-0.046875,-0.044677734375,0.975830078125
2020-08-15 15:38:07.209152,-0.033935546875,-0.03173828125,0.971435546875
2020-08-15 15:38:07.228668,-0.0458984375,-0.030029296875,0.971435546875
2020-08-15 15:38:07.247872,-0.030517578125,-0.028076171875,0.97509765625
2020-08-15 15:38:07.267486,-0.01806640625,-0.046142578125,0.973876953125
2020-08-15 15:38:07.286767,-0.02880859375,-0.0322265625,0.969970703125
2020-08-15 15:38:07.306249,-0.031494140625,-0.03125,0.972900390625
2020-08-15 15:38:07.325659,-0.03271484375,-0.036376953125,0.9716796875
2020-08-15 15:38:07.348356,-0.031982421875,-0.031494140625,0.95556640625
2020-08-15 15:38:07.367822,-0.030029296875,-0.0439453125,0.9697265625
2020-08-15 15:38:07.387355,-0.03466796875,-0.029296875,0.967529296875
2020-08-15 15:38:07.406656,-0.028564453125,-0.02783203125,0.972900390625
2020-08-15 15:38:07.425991,-0.03271484375,-0.028076171875,0.96630859375
2020-08-15 15:38:07.445482,-0.028564453125,-0.033203125,0.983642578125
2020-08-15 15:38:07.464694,-0.027587890625,-0.03076171875,0.9677734375
2020-08-15 15:38:07.484065,-0.03076171875,-0.032958984375,0.9697265625
2020-08-15 15:38:07.503336,-0.018798828125,-0.0439453125,0.954833984375
2020-08-15 15:38:07.522680,-0.031494140625,-0.032470703125,0.972412109375
2020-08-15 15:38:07.542050,-0.031494140625,-0.03125,0.967041015625
2020-08-15 15:38:07.561353,-0.0322265625,-0.046142578125,0.970947265625
2020-08-15 15:38:07.580718,-0.02978515625,-0.029541015625,0.974609375
2020-08-15 15:38:07.600108,-0.03125,-0.03076171875,0.95849609375
2020-08-15 15:38:07.619516,-0.04443359375,-0.032470703125,0.973388671875
2020-08-15 15:38:07.639048,-0.02587890625,-0.03759765625,0.96826171875
2020-08-15 15:38:07.658356,-0.03369140625,-0.03466796875,0.97216796875
2020-08-15 15:38:07.677660,-0.0322265625,-0.031005859375,0.971923828125
2020-08-15 15:38:07.697128,-0.03369140625,-0.03271484375,0.9716796875
2020-08-15 15:38:07.716558,-0.027587890625,-0.03173828125,0.97705078125
2020-08-15 15:38:07.735658,-0.027587890625,-0.032470703125,0.962646484375
2020-08-15 15:38:07.755410,-0.029052734375,-0.0302734375,0.969970703125
2020-08-15 15:38:07.774682,-0.0341796875,-0.031494140625,0.969482421875
2020-08-15 15:38:07.794182,-0.029296875,-0.03515625,0.973876953125
2020-08-15 15:38:07.813553,-0.032958984375,-0.03662109375,0.96923828125
2020-08-15 15:38:07.832835,-0.028076171875,-0.033447265625,0.969482421875
2020-08-15 15:38:07.852171,-0.032958984375,-0.037353515625,0.976806640625
2020-08-15 15:38:07.871533,-0.015869140625,-0.029052734375,0.9697265625
2020-08-15 15:38:07.890862,-0.03076171875,-0.02978515625,0.970458984375
2020-08-15 15:38:07.910563,-0.034423828125,-0.028564453125,0.968505859375
2020-08-15 15:38:07.930120,-0.03466796875,-0.027587890625,0.97265625
2020-08-15 15:38:07.949908,-0.025390625,-0.03564453125,0.96826171875
2020-08-15 15:38:07.969463,-0.046875,-0.035888671875,0.95556640625
2020-08-15 15:38:07.988841,-0.03466796875,-0.033935546875,0.97265625
2020-08-15 15:38:08.008671,-0.0166015625,-0.03369140625,0.97119140625
2020-08-15 15:38:08.028211,-0.029541015625,-0.046875,0.972412109375
2020-08-15 15:38:08.047652,-0.030517578125,-0.030517578125,0.9658203125
2020-08-15 15:38:08.067264,-0.017822265625,-0.042724609375,0.971435546875
2020-08-15 15:38:08.086654,-0.03076171875,-0.03369140625,0.976318359375
2020-08-15 15:38:08.105977,-0.036376953125,-0.030029296875,0.982421875
2020-08-15 15:38:08.125247,-0.0302734375,-0.017333984375,0.98291015625
2020-08-15 15:38:08.144527,-0.031494140625,-0.031005859375,0.969970703125
2020-08-15 15:38:08.163948,-0.033203125,-0.0302734375,0.97509765625
2020-08-15 15:38:08.183363,-0.0302734375,-0.029541015625,0.978271484375
2020-08-15 15:38:08.202618,-0.0263671875,-0.028076171875,0.9677734375
2020-08-15 15:38:08.221944,-0.03076171875,-0.0322265625,0.96923828125
2020-08-15 15:38:08.241508,-0.02978515625,-0.03076171875,0.974609375
2020-08-15 15:38:08.260821,-0.02880859375,-0.03515625,0.970947265625
2020-08-15 15:38:08.280227,-0.0458984375,-0.0302734375,0.976318359375
2020-08-15 15:38:08.299761,-0.034423828125,-0.031494140625,0.97705078125
2020-08-15 15:38:08.319203,-0.029296875,-0.03662109375,0.97216796875
2020-08-15 15:38:08.338650,-0.031494140625,-0.032958984375,0.96826171875
2020-08-15 15:38:08.358230,-0.016845703125,-0.02978515625,0.970703125
2020-08-15 15:38:08.377318,-0.03076171875,-0.029541015625,0.97607421875
2020-08-15 15:38:08.396675,-0.03173828125,-0.028564453125,0.966552734375
2020-08-15 15:38:08.415934,-0.02734375,-0.0341796875,0.966064453125
2020-08-15 15:38:08.435256,-0.031982421875,-0.03515625,0.9677734375
2020-08-15 15:38:08.454511,-0.02880859375,-0.033203125,0.969482421875
2020-08-15 15:38:08.474294,-0.03466796875,-0.03173828125,0.97802734375
2020-08-15 15:38:08.493325,-0.033935546875,-0.033203125,0.9765625
2020-08-15 15:38:08.512692,-0.034423828125,-0.033935546875,0.9697265625
2020-08-15 15:38:08.531815,-0.030517578125,-0.029541015625,0.984130859375
2020-08-15 15:38:08.551203,-0.0322265625,-0.02978515625,0.973388671875
2020-08-15 15:38:08.570611,-0.029541015625,-0.03076171875,0.97021484375
2020-08-15 15:38:08.590373,-0.0302734375,-0.031005859375,0.97265625
2020-08-15 15:38:08.610010,-0.01708984375,-0.032958984375,0.975341796875
2020-08-15 15:38:08.629413,-0.03076171875,-0.03271484375,0.9775390625
2020-08-15 15:38:08.648840,-0.02978515625,-0.016357421875,0.97265625
2020-08-15 15:38:08.668676,-0.033203125,-0.033203125,0.970458984375
2020-08-15 15:38:08.688219,-0.016845703125,-0.033447265625,0.971435546875
2020-08-15 15:38:08.707393,-0.0302734375,-0.028564453125,0.9677734375
2020-08-15 15:38:08.726723,-0.033203125,-0.02685546875,0.982177734375
2020-08-15 15:38:08.746057,-0.03076171875,-0.016357421875,0.980712890625
2020-08-15 15:38:08.766024,-0.031494140625,-0.04541015625,0.97509765625
2020-08-15 15:38:08.785450,-0.03125,-0.031005859375,0.971435546875
2020-08-15 15:38:08.804717,-0.0283203125,-0.018310546875,0.970458984375
2020-08-15 15:38:08.824043,-0.03125,-0.033203125,0.969970703125
2020-08-15 15:38:08.843369,-0.029541015625,-0.031982421875,0.964111328125
2020-08-15 15:38:08.862780,-0.03125,-0.03125,0.983642578125
2020-08-15 15:38:08.882172,-0.01708984375,-0.027099609375,0.969482421875
2020-08-15 15:38:08.902100,-0.030517578125,-0.030517578125,0.9765625
2020-08-15 15:38:08.921409,-0.026123046875,-0.03125,0.97705078125
2020-08-15 15:38:08.940725,-0.046875,-0.031982421875,0.979736328125
2020-08-15 15:38:08.959899,-0.046875,-0.03369140625,0.97216796875
2020-08-15 15:38:08.979294,-0.0283203125,-0.027587890625,0.9716796875
2020-08-15 15:38:08.998761,-0.016845703125,-0.035400390625,0.970458984375
2020-08-15 15:38:09.018234,-0.0322265625,-0.0283203125,0.974853515625
2020-08-15 15:38:09.037534,-0.0458984375,-0.030029296875,0.968994140625
2020-08-15 15:38:09.056919,-0.029052734375,-0.034423828125,0.965087890625
2020-08-15 15:38:09.076276,-0.031494140625,-0.027099609375,0.966064453125
2020-08-15 15:38:09.095568,-0.0341796875,-0.033203125,0.9765625
2020-08-15 15:38:09.115328,-0.017578125,-0.033203125,0.973388671875
2020-08-15 15:38:09.134647,-0.0322265625,-0.0185546875,0.969970703125
2020-08-15 15:38:09.153982,-0.03369140625,-0.036376953125,0.9755859375
2020-08-15 15:38:09.173268,-0.030029296875,-0.033935546875,0.968994140625
2020-08-15 15:38:09.192655,-0.031982421875,-0.033203125,0.973388671875
2020-08-15 15:38:09.211887,-0.02978515625,-0.031494140625,0.968505859375
2020-08-15 15:38:09.231257,-0.031982421875,-0.031005859375,0.97119140625
2020-08-15 15:38:09.250528,-0.017578125,-0.031494140625,0.970703125
2020-08-15 15:38:09.269906,-0.046630859375,-0.032958984375,0.96435546875
2020-08-15 15:38:09.289892,-0.026611328125,-0.033203125,0.968505859375
2020-08-15 15:38:09.309399,-0.02978515625,-0.0322265625,0.976318359375
2020-08-15 15:38:09.329069,-0.016357421875,-0.03466796875,0.974609375
2020-08-15 15:38:09.348465,-0.03369140625,-0.02880859375,0.969482421875
2020-08-15 15:38:09.367819,-0.0302734375,-0.030029296875,0.963134765625
2020-08-15 15:38:09.387232,-0.029052734375,-0.033935546875,0.96826171875
2020-08-15 15:38:09.406640,-0.0302734375,-0.0166015625,0.970703125
2020-08-15 15:38:09.432954,-0.023681640625,-0.03125,0.973388671875
2020-08-15 15:38:09.452261,-0.028564453125,-0.0322265625,0.970703125
2020-08-15 15:38:09.471602,-0.0458984375,-0.035888671875,0.975341796875
2020-08-15 15:38:09.490860,-0.03125,-0.03125,0.969482421875
2020-08-15 15:38:09.510540,-0.033203125,-0.0322265625,0.9638671875
2020-08-15 15:38:09.530038,-0.032470703125,-0.030029296875,0.9677734375
2020-08-15 15:38:09.549456,-0.046875,-0.032958984375,0.974365234375
2020-08-15 15:38:09.568859,-0.02880859375,-0.031005859375,0.968994140625
2020-08-15 15:38:09.588411,-0.02783203125,-0.044677734375,0.95703125
2020-08-15 15:38:09.607818,-0.031494140625,-0.0322265625,0.9765625
2020-08-15 15:38:09.627302,-0.032958984375,-0.035400390625,0.965087890625
2020-08-15 15:38:09.646679,-0.031982421875,-0.034912109375,0.984130859375
2020-08-15 15:38:09.666035,-0.033935546875,-0.031982421875,0.969482421875
2020-08-15 15:38:09.685593,-0.0341796875,-0.0302734375,0.971435546875
2020-08-15 15:38:09.705542,-0.028076171875,-0.027587890625,0.969482421875
2020-08-15 15:38:09.724912,-0.030517578125,-0.03271484375,0.96826171875
2020-08-15 15:38:09.744227,-0.018798828125,-0.033203125,0.97216796875
2020-08-15 15:38:09.763658,-0.032470703125,-0.028564453125,0.97021484375
2020-08-15 15:38:09.782960,-0.0322265625,-0.033935546875,0.973876953125
2020-08-15 15:38:09.802474,-0.046630859375,-0.0322265625,0.96923828125
2020-08-15 15:38:09.821765,-0.03173828125,-0.033935546875,0.972900390625
2020-08-15 15:38:09.841206,-0.028564453125,-0.02880859375,0.974365234375
2020-08-15 15:38:09.860650,-0.01611328125,-0.02880859375,0.968017578125
2020-08-15 15:38:09.880071,-0.03076171875,-0.032470703125,0.968994140625
2020-08-15 15:38:09.899507,-0.017578125,-0.03564453125,0.9755859375
2020-08-15 15:38:09.918688,-0.02734375,-0.03369140625,0.966796875
2020-08-15 15:38:09.938193,-0.031982421875,-0.033447265625,0.969482421875
2020-08-15 15:38:09.957317,-0.03271484375,-0.0341796875,0.9716796875
2020-08-15 15:38:09.976650,-0.0283203125,-0.03271484375,0.96923828125
2020-08-15 15:38:09.996175,-0.0283203125,-0.0322265625,0.970458984375
2020-08-15 15:38:10.015672,-0.04638671875,-0.02685546875,0.967529296875
2020-08-15 15:38:10.035006,-0.031005859375,-0.029541015625,0.97119140625
2020-08-15 15:38:10.054347,-0.03466796875,-0.02978515625,0.971435546875
2020-08-15 15:38:10.073676,-0.0341796875,-0.031005859375,0.970458984375
2020-08-15 15:38:10.093176,-0.031982421875,-0.028564453125,0.97265625
2020-08-15 15:38:10.112739,-0.0185546875,-0.045654296875,0.967041015625
2020-08-15 15:38:10.132111,-0.03076171875,-0.033447265625,0.97021484375
2020-08-15 15:38:10.151375,-0.03125,-0.033935546875,0.96923828125
2020-08-15 15:38:10.170693,-0.032958984375,-0.035888671875,0.972900390625
2020-08-15 15:38:10.190068,-0.031982421875,-0.032958984375,0.956298828125
2020-08-15 15:38:10.209839,-0.02978515625,-0.028076171875,0.962890625
2020-08-15 15:38:10.229373,-0.03125,-0.031982421875,0.95458984375
2020-08-15 15:38:10.248790,-0.03076171875,-0.0322265625,0.972412109375
2020-08-15 15:38:10.268568,-0.015869140625,-0.035400390625,0.95654296875
2020-08-15 15:38:10.287848,-0.032470703125,-0.036376953125,0.973388671875
2020-08-15 15:38:10.307629,-0.046875,-0.0322265625,0.9677734375
2020-08-15 15:38:10.327194,-0.01708984375,-0.046875,0.971923828125
2020-08-15 15:38:10.346556,-0.034423828125,-0.02783203125,0.974853515625
2020-08-15 15:38:10.365799,-0.03125,-0.02978515625,0.9765625
2020-08-15 15:38:10.385095,-0.046142578125,-0.0283203125,0.967529296875
2020-08-15 15:38:10.404413,-0.029052734375,-0.03076171875,0.96923828125
2020-08-15 15:38:10.424125,-0.03271484375,-0.03271484375,0.968505859375
2020-08-15 15:38:10.443455,-0.0302734375,-0.0302734375,0.9716796875
2020-08-15 15:38:10.463594,-0.031005859375,-0.030517578125,0.9716796875
2020-08-15 15:38:10.482956,-0.032958984375,-0.0302734375,0.975830078125
2020-08-15 15:38:10.502261,-0.02978515625,-0.029541015625,0.962646484375
2020-08-15 15:38:10.521822,-0.03466796875,-0.0302734375,0.971435546875
2020-08-15 15:38:10.541209,-0.02734375,-0.033447265625,0.97314453125
2020-08-15 15:38:10.560741,-0.02880859375,-0.032470703125,0.970947265625
2020-08-15 15:38:10.580201,-0.029052734375,-0.03369140625,0.969482421875
2020-08-15 15:38:10.599627,-0.0302734375,-0.033447265625,0.97509765625
2020-08-15 15:38:10.619363,-0.031005859375,-0.028564453125,0.97119140625
2020-08-15 15:38:10.638880,-0.028564453125,-0.017578125,0.956298828125
2020-08-15 15:38:10.658428,-0.033447265625,-0.03125,0.955810546875
2020-08-15 15:38:10.677740,-0.0322265625,-0.028564453125,0.96875
2020-08-15 15:38:10.697275,-0.0458984375,-0.02783203125,0.9716796875
2020-08-15 15:38:10.716603,-0.031005859375,-0.033935546875,0.967041015625
2020-08-15 15:38:10.735908,-0.027587890625,-0.0341796875,0.981689453125
2020-08-15 15:38:10.755223,-0.04541015625,-0.033203125,0.982177734375
2020-08-15 15:38:10.774609,-0.030517578125,-0.031982421875,0.97265625
2020-08-15 15:38:10.794020,-0.03125,-0.0322265625,0.978515625
2020-08-15 15:38:10.813336,-0.03173828125,-0.031494140625,0.97412109375
2020-08-15 15:38:10.832697,-0.034912109375,-0.046142578125,0.97119140625
2020-08-15 15:38:10.852125,-0.01806640625,-0.029296875,0.96044921875
2020-08-15 15:38:10.871461,-0.031005859375,-0.0322265625,0.9697265625
2020-08-15 15:38:10.890832,-0.029296875,-0.03173828125,0.969482421875
2020-08-15 15:38:10.910434,-0.03271484375,-0.035888671875,0.973388671875
2020-08-15 15:38:10.930367,-0.0166015625,-0.034423828125,0.965087890625
2020-08-15 15:38:10.950077,-0.030029296875,-0.03076171875,0.955078125
2020-08-15 15:38:10.969526,-0.028076171875,-0.02880859375,0.969970703125
2020-08-15 15:38:10.988950,-0.033447265625,-0.030517578125,0.97216796875
2020-08-15 15:38:11.009362,-0.01611328125,-0.029052734375,0.95556640625
2020-08-15 15:38:11.029196,-0.031982421875,-0.031005859375,0.966796875
2020-08-15 15:38:11.048637,-0.030029296875,-0.030517578125,0.96630859375
2020-08-15 15:38:11.068039,-0.045166015625,-0.044677734375,0.971435546875
2020-08-15 15:38:11.087334,-0.031982421875,-0.0341796875,0.974853515625
2020-08-15 15:38:11.106800,-0.016357421875,-0.017578125,0.969482421875
2020-08-15 15:38:11.126034,-0.03125,-0.0322265625,0.97216796875
2020-08-15 15:38:11.145519,-0.0302734375,-0.0322265625,0.95947265625
2020-08-15 15:38:11.164794,-0.04443359375,-0.033935546875,0.968994140625
2020-08-15 15:38:11.184344,-0.029541015625,-0.0322265625,0.970703125
2020-08-15 15:38:11.203671,-0.0458984375,-0.034423828125,0.966796875
2020-08-15 15:38:11.222926,-0.046630859375,-0.032958984375,0.9765625
2020-08-15 15:38:11.242413,-0.033935546875,-0.0341796875,0.9677734375
2020-08-15 15:38:11.261745,-0.034423828125,-0.032470703125,0.97509765625
2020-08-15 15:38:11.281061,-0.035400390625,-0.033935546875,0.974365234375
2020-08-15 15:38:11.300449,-0.031005859375,-0.031005859375,0.97021484375
2020-08-15 15:38:11.319933,-0.045654296875,-0.016845703125,0.96728515625
2020-08-15 15:38:11.339630,-0.02880859375,-0.030517578125,0.972412109375
2020-08-15 15:38:11.359041,-0.028564453125,-0.03173828125,0.963134765625
2020-08-15 15:38:11.378495,-0.0322265625,-0.03564453125,0.973388671875
2020-08-15 15:38:11.398172,-0.045166015625,-0.03564453125,0.970458984375
2020-08-15 15:38:11.417704,-0.03564453125,-0.028564453125,0.970703125
2020-08-15 15:38:11.436956,-0.0322265625,-0.030029296875,0.97216796875
2020-08-15 15:38:11.456197,-0.033203125,-0.029296875,0.97314453125
2020-08-15 15:38:11.475523,-0.033447265625,-0.0302734375,0.956298828125
2020-08-15 15:38:11.494780,-0.033203125,-0.02880859375,0.95458984375
2020-08-15 15:38:11.514421,-0.03466796875,-0.03369140625,0.95556640625
2020-08-15 15:38:11.533784,-0.03369140625,-0.034423828125,0.96923828125
2020-08-15 15:38:11.553058,-0.031494140625,-0.033935546875,0.97216796875
2020-08-15 15:38:11.572585,-0.015869140625,-0.046142578125,0.972900390625
2020-08-15 15:38:11.591959,-0.033447265625,-0.033447265625,0.97216796875
2020-08-15 15:38:11.611372,-0.031005859375,-0.03564453125,0.972900390625
2020-08-15 15:38:11.630704,-0.03662109375,-0.0302734375,0.971923828125
2020-08-15 15:38:11.650540,-0.0322265625,-0.01904296875,0.96728515625
2020-08-15 15:38:11.669925,-0.03173828125,-0.029052734375,0.97216796875
2020-08-15 15:38:11.689458,-0.031982421875,-0.03125,0.9716796875
2020-08-15 15:38:11.708652,-0.028564453125,-0.032958984375,0.970703125
2020-08-15 15:38:11.728071,-0.031494140625,-0.034423828125,0.973388671875
2020-08-15 15:38:11.747681,-0.03271484375,-0.04541015625,0.953125
2020-08-15 15:38:11.767170,-0.031494140625,-0.0361328125,0.971435546875
2020-08-15 15:38:11.786625,-0.033447265625,-0.029541015625,0.97265625
2020-08-15 15:38:11.805951,-0.032470703125,-0.030517578125,0.970458984375
2020-08-15 15:38:11.825504,-0.030029296875,-0.04541015625,0.98291015625
2020-08-15 15:38:11.844682,-0.03173828125,-0.03173828125,0.973876953125
2020-08-15 15:38:11.864082,-0.033447265625,-0.03173828125,0.96826171875
2020-08-15 15:38:11.883470,-0.030029296875,-0.03125,0.97509765625
2020-08-15 15:38:11.904195,-0.033447265625,-0.0341796875,0.9697265625
2020-08-15 15:38:11.923612,-0.029296875,-0.033447265625,0.97265625
2020-08-15 15:38:11.942874,-0.03076171875,-0.032470703125,0.968017578125
2020-08-15 15:38:11.962176,-0.0341796875,-0.03173828125,0.97021484375
2020-08-15 15:38:11.981503,-0.031005859375,-0.03369140625,0.974365234375
2020-08-15 15:38:12.000985,-0.031494140625,-0.031982421875,0.970947265625
2020-08-15 15:38:12.020504,-0.030029296875,-0.02880859375,0.98388671875
2020-08-15 15:38:12.039966,-0.032470703125,-0.0341796875,0.9716796875
2020-08-15 15:38:12.059562,-0.01708984375,-0.03564453125,0.97412109375
2020-08-15 15:38:12.079005,-0.03125,-0.031494140625,0.9697265625
2020-08-15 15:38:12.098371,-0.033203125,-0.03076171875,0.95556640625
2020-08-15 15:38:12.117681,-0.029296875,-0.033447265625,0.97314453125
2020-08-15 15:38:12.136866,-0.0283203125,-0.03369140625,0.97119140625
2020-08-15 15:38:12.156693,-0.030517578125,-0.019775390625,0.9755859375
2020-08-15 15:38:12.175975,-0.03076171875,-0.03125,0.9619140625
2020-08-15 15:38:12.195301,-0.030517578125,-0.031005859375,0.984130859375
2020-08-15 15:38:12.214488,-0.0302734375,-0.03369140625,0.970947265625
2020-08-15 15:38:12.233819,-0.02783203125,-0.031005859375,0.969970703125
2020-08-15 15:38:12.253286,-0.02197265625,-0.0341796875,0.96728515625
2020-08-15 15:38:12.272552,-0.033203125,-0.0322265625,0.970703125
2020-08-15 15:38:12.292109,-0.032470703125,-0.031005859375,0.9765625
2020-08-15 15:38:12.311518,-0.02880859375,-0.03076171875,0.973876953125
2020-08-15 15:38:12.330983,-0.029541015625,-0.032470703125,0.97412109375
2020-08-15 15:38:12.350448,-0.02880859375,-0.031005859375,0.974365234375
2020-08-15 15:38:12.369903,-0.0302734375,-0.02783203125,0.97265625
2020-08-15 15:38:12.389261,-0.018798828125,-0.017822265625,0.970458984375
2020-08-15 15:38:12.408745,-0.029052734375,-0.032958984375,0.966552734375
2020-08-15 15:38:12.428184,-0.031982421875,-0.034423828125,0.968017578125
2020-08-15 15:38:12.447527,-0.033203125,-0.032958984375,0.97021484375
2020-08-15 15:38:12.467034,-0.03271484375,-0.015869140625,0.9697265625
2020-08-15 15:38:12.486395,-0.045166015625,-0.0166015625,0.984130859375
2020-08-15 15:38:12.505712,-0.035888671875,-0.0322265625,0.9716796875
2020-08-15 15:38:12.524986,-0.031494140625,-0.032958984375,0.982421875
2020-08-15 15:38:12.545156,-0.01806640625,-0.03271484375,0.975830078125
2020-08-15 15:38:12.564772,-0.02783203125,-0.034912109375,0.968505859375
2020-08-15 15:38:12.584051,-0.029541015625,-0.046142578125,0.97119140625
2020-08-15 15:38:12.603383,-0.029541015625,-0.031494140625,0.974365234375
2020-08-15 15:38:12.622680,-0.0322265625,-0.038818359375,0.96875
2020-08-15 15:38:12.642077,-0.0341796875,-0.029052734375,0.970458984375
2020-08-15 15:38:12.661337,-0.03173828125,-0.027587890625,0.968505859375
2020-08-15 15:38:12.680633,-0.0322265625,-0.029052734375,0.978515625
2020-08-15 15:38:12.700141,-0.04443359375,-0.032958984375,0.969970703125
2020-08-15 15:38:12.719948,-0.029052734375,-0.030517578125,0.9716796875
2020-08-15 15:38:12.739523,-0.046142578125,-0.0341796875,0.9677734375
2020-08-15 15:38:12.759043,-0.031494140625,-0.016357421875,0.97314453125
2020-08-15 15:38:12.778433,-0.029052734375,-0.031982421875,0.966796875
2020-08-15 15:38:12.798279,-0.029296875,-0.033447265625,0.968994140625
2020-08-15 15:38:12.817776,-0.031982421875,-0.02978515625,0.96630859375
2020-08-15 15:38:12.837299,-0.0185546875,-0.03271484375,0.9833984375
2020-08-15 15:38:12.856618,-0.037109375,-0.031005859375,0.96923828125
2020-08-15 15:38:12.876134,-0.029541015625,-0.03271484375,0.973388671875
2020-08-15 15:38:12.895429,-0.031494140625,-0.033203125,0.972900390625
2020-08-15 15:38:12.914824,-0.029541015625,-0.03369140625,0.969482421875
2020-08-15 15:38:12.934086,-0.0341796875,-0.0302734375,0.9697265625
2020-08-15 15:38:12.953509,-0.028076171875,-0.032470703125,0.970458984375
2020-08-15 15:38:12.972793,-0.016357421875,-0.03076171875,0.95556640625
2020-08-15 15:38:12.992071,-0.0263671875,-0.029052734375,0.972412109375
2020-08-15 15:38:13.011682,-0.032470703125,-0.02880859375,0.968505859375
2020-08-15 15:38:13.031079,-0.02880859375,-0.03271484375,0.974609375
2020-08-15 15:38:13.050300,-0.032958984375,-0.03076171875,0.968994140625
2020-08-15 15:38:13.069674,-0.031494140625,-0.0322265625,0.967041015625
2020-08-15 15:38:13.089429,-0.015869140625,-0.045166015625,0.972412109375
2020-08-15 15:38:13.108796,-0.046630859375,-0.0302734375,0.966552734375
2020-08-15 15:38:13.128454,-0.029541015625,-0.0302734375,0.97216796875
2020-08-15 15:38:13.147800,-0.031494140625,-0.03173828125,0.95361328125
2020-08-15 15:38:13.167273,-0.029541015625,-0.032470703125,0.971435546875
2020-08-15 15:38:13.187262,-0.031494140625,-0.045166015625,0.962158203125
2020-08-15 15:38:13.206381,-0.02880859375,-0.03076171875,0.967529296875
2020-08-15 15:38:13.226464,-0.0302734375,-0.0341796875,0.970703125
2020-08-15 15:38:13.245718,-0.03515625,-0.01611328125,0.981689453125
2020-08-15 15:38:13.265505,-0.03564453125,-0.036865234375,0.966796875
2020-08-15 15:38:13.285212,-0.046630859375,-0.035400390625,0.970458984375
2020-08-15 15:38:13.304641,-0.02978515625,-0.02880859375,0.982666015625
2020-08-15 15:38:13.323985,-0.046875,-0.03369140625,0.9765625
2020-08-15 15:38:13.343264,-0.0283203125,-0.032958984375,0.96728515625
2020-08-15 15:38:13.362574,-0.031005859375,-0.03125,0.972412109375
2020-08-15 15:38:13.381718,-0.046142578125,-0.016357421875,0.9833984375
2020-08-15 15:38:13.401064,-0.028564453125,-0.03173828125,0.96728515625
2020-08-15 15:38:13.420557,-0.029296875,-0.031982421875,0.978759765625
2020-08-15 15:38:13.439948,-0.034912109375,-0.031494140625,0.9716796875
2020-08-15 15:38:13.459298,-0.032958984375,-0.031494140625,0.972900390625
2020-08-15 15:38:13.478779,-0.03125,-0.0458984375,0.956298828125
2020-08-15 15:38:13.498336,-0.028076171875,-0.033447265625,0.966064453125
2020-08-15 15:38:13.517743,-0.046142578125,-0.0302734375,0.954833984375
2020-08-15 15:38:13.537146,-0.0283203125,-0.03271484375,0.974365234375
2020-08-15 15:38:13.556589,-0.016845703125,-0.02783203125,0.96484375
2020-08-15 15:38:13.575844,-0.037109375,-0.031982421875,0.966552734375
2020-08-15 15:38:13.595860,-0.030517578125,-0.031982421875,0.973388671875
2020-08-15 15:38:13.615175,-0.03369140625,-0.02978515625,0.968505859375
2020-08-15 15:38:13.634271,-0.02880859375,-0.030517578125,0.973388671875
2020-08-15 15:38:13.653574,-0.028564453125,-0.033203125,0.97509765625
2020-08-15 15:38:13.672885,-0.0322265625,-0.01806640625,0.970458984375
2020-08-15 15:38:13.692659,-0.02880859375,-0.030029296875,0.970458984375
2020-08-15 15:38:13.711854,-0.032470703125,-0.03125,0.968017578125
2020-08-15 15:38:13.731207,-0.028076171875,-0.031494140625,0.96630859375
2020-08-15 15:38:13.750571,-0.033935546875,-0.032958984375,0.971435546875
2020-08-15 15:38:13.770044,-0.03076171875,-0.029541015625,0.975830078125
2020-08-15 15:38:13.789299,-0.030029296875,-0.030029296875,0.973876953125
2020-08-15 15:38:13.808776,-0.046630859375,-0.033447265625,0.96728515625
2020-08-15 15:38:13.828313,-0.029296875,-0.031005859375,0.9755859375
2020-08-15 15:38:13.847585,-0.0166015625,-0.035888671875,0.98193359375
2020-08-15 15:38:13.867088,-0.029296875,-0.036376953125,0.96484375
2020-08-15 15:38:13.886280,-0.0283203125,-0.030517578125,0.9697265625
2020-08-15 15:38:13.905710,-0.016357421875,-0.0322265625,0.97119140625
2020-08-15 15:38:13.925061,-0.0302734375,-0.03564453125,0.97412109375
2020-08-15 15:38:13.944459,-0.03125,-0.032470703125,0.9697265625
2020-08-15 15:38:13.963740,-0.030517578125,-0.032958984375,0.971923828125
2020-08-15 15:38:13.983139,-0.030029296875,-0.0341796875,0.97021484375
2020-08-15 15:38:14.002555,-0.0302734375,-0.026611328125,0.98291015625
2020-08-15 15:38:14.021938,-0.029541015625,-0.035400390625,0.966796875
2020-08-15 15:38:14.041207,-0.02783203125,-0.02783203125,0.9716796875
2020-08-15 15:38:14.060619,-0.01806640625,-0.032958984375,0.970947265625
2020-08-15 15:38:14.080042,-0.03125,-0.03125,0.96923828125
2020-08-15 15:38:14.099422,-0.029541015625,-0.046630859375,0.968994140625
2020-08-15 15:38:14.118955,-0.025390625,-0.032470703125,0.97509765625
2020-08-15 15:38:14.138409,-0.04638671875,-0.03369140625,0.9755859375
2020-08-15 15:38:14.157763,-0.033447265625,-0.029541015625,0.97314453125
2020-08-15 15:38:14.177178,-0.029541015625,-0.03271484375,0.973876953125
2020-08-15 15:38:14.196487,-0.016357421875,-0.033203125,0.98388671875
2020-08-15 15:38:14.215729,-0.03125,-0.030029296875,0.97021484375
2020-08-15 15:38:14.235200,-0.031494140625,-0.032958984375,0.9716796875
2020-08-15 15:38:14.254558,-0.0302734375,-0.029052734375,0.972412109375
2020-08-15 15:38:14.273900,-0.02880859375,-0.031494140625,0.967041015625
2020-08-15 15:38:14.293073,-0.02685546875,-0.029296875,0.9697265625
2020-08-15 15:38:14.312490,-0.03515625,-0.045654296875,0.97314453125
2020-08-15 15:38:14.331865,-0.031494140625,-0.031005859375,0.9755859375
2020-08-15 15:38:14.351219,-0.029541015625,-0.027587890625,0.972900390625
2020-08-15 15:38:14.370522,-0.0283203125,-0.034912109375,0.970703125
2020-08-15 15:38:14.389979,-0.029296875,-0.03271484375,0.97119140625
2020-08-15 15:38:14.409799,-0.034423828125,-0.0458984375,0.971435546875
2020-08-15 15:38:14.429206,-0.031982421875,-0.0361328125,0.968505859375
2020-08-15 15:38:14.448686,-0.033935546875,-0.017578125,0.9716796875
2020-08-15 15:38:14.468159,-0.03076171875,-0.033935546875,0.9755859375
2020-08-15 15:38:14.487541,-0.028076171875,-0.02783203125,0.966552734375
2020-08-15 15:38:14.506837,-0.033447265625,-0.033447265625,0.975830078125
2020-08-15 15:38:14.526518,-0.0302734375,-0.028564453125,0.96923828125
2020-08-15 15:38:14.545864,-0.031494140625,-0.0341796875,0.969482421875
2020-08-15 15:38:14.565142,-0.03125,-0.017333984375,0.95458984375
2020-08-15 15:38:14.584378,-0.03076171875,-0.032470703125,0.97216796875
2020-08-15 15:38:14.603783,-0.032958984375,-0.03369140625,0.97509765625
2020-08-15 15:38:14.623503,-0.01708984375,-0.03076171875,0.97119140625
2020-08-15 15:38:14.643089,-0.02978515625,-0.036376953125,0.973876953125
2020-08-15 15:38:14.662126,-0.029052734375,-0.0283203125,0.973876953125
2020-08-15 15:38:14.681558,-0.0283203125,-0.035400390625,0.972900390625
2020-08-15 15:38:14.701022,-0.031982421875,-0.033203125,0.969970703125
2020-08-15 15:38:14.720708,-0.015869140625,-0.04541015625,0.960205078125
2020-08-15 15:38:14.740111,-0.032958984375,-0.02978515625,0.96875
2020-08-15 15:38:14.759455,-0.028076171875,-0.0341796875,0.96728515625
2020-08-15 15:38:14.778874,-0.0283203125,-0.037353515625,0.9736328125
2020-08-15 15:38:14.798256,-0.03125,-0.029052734375,0.984130859375
2020-08-15 15:38:14.817748,-0.030517578125,-0.033203125,0.97119140625
2020-08-15 15:38:14.837228,-0.027099609375,-0.031982421875,0.983154296875
2020-08-15 15:38:14.856509,-0.0302734375,-0.03173828125,0.9716796875
2020-08-15 15:38:14.875863,-0.02783203125,-0.031005859375,0.97021484375
2020-08-15 15:38:14.895149,-0.01611328125,-0.046875,0.96826171875
2020-08-15 15:38:14.914488,-0.030029296875,-0.031005859375,0.9736328125
2020-08-15 15:38:14.933841,-0.03369140625,-0.03076171875,0.9716796875
2020-08-15 15:38:14.953110,-0.034912109375,-0.016845703125,0.972900390625
2020-08-15 15:38:14.972586,-0.03564453125,-0.0322265625,0.970703125
2020-08-15 15:38:14.991879,-0.04541015625,-0.034423828125,0.974853515625
2020-08-15 15:38:15.011552,-0.030517578125,-0.031982421875,0.95361328125
2020-08-15 15:38:15.031216,-0.0341796875,-0.033935546875,0.970947265625
2020-08-15 15:38:15.050597,-0.03076171875,-0.032470703125,0.96533203125
2020-08-15 15:38:15.070029,-0.029296875,-0.017822265625,0.983642578125
2020-08-15 15:38:15.089462,-0.0322265625,-0.029052734375,0.97021484375
2020-08-15 15:38:15.108865,-0.029052734375,-0.03564453125,0.981201171875
2020-08-15 15:38:15.128645,-0.034912109375,-0.02734375,0.9697265625
2020-08-15 15:38:15.148065,-0.031982421875,-0.02978515625,0.97607421875
2020-08-15 15:38:15.167442,-0.02783203125,-0.028076171875,0.969482421875
2020-08-15 15:38:15.186767,-0.030029296875,-0.03271484375,0.983642578125
2020-08-15 15:38:15.206006,-0.03125,-0.0341796875,0.98388671875
2020-08-15 15:38:15.225243,-0.03173828125,-0.029541015625,0.97216796875
2020-08-15 15:38:15.244685,-0.030517578125,-0.034423828125,0.96875
2020-08-15 15:38:15.263942,-0.046630859375,-0.032958984375,0.97216796875
2020-08-15 15:38:15.283288,-0.03515625,-0.033935546875,0.97509765625
2020-08-15 15:38:15.302594,-0.03076171875,-0.02880859375,0.97607421875
2020-08-15 15:38:15.322136,-0.03271484375,-0.031982421875,0.97216796875
2020-08-15 15:38:15.341283,-0.0341796875,-0.034912109375,0.972412109375
2020-08-15 15:38:15.360676,-0.03125,-0.031494140625,0.972412109375
2020-08-15 15:38:15.380066,-0.033935546875,-0.016845703125,0.96337890625
2020-08-15 15:38:15.399507,-0.031005859375,-0.033935546875,0.972900390625
2020-08-15 15:38:15.419005,-0.033447265625,-0.0283203125,0.968017578125
2020-08-15 15:38:15.438767,-0.029052734375,-0.035400390625,0.973876953125
2020-08-15 15:38:15.458869,-0.018310546875,-0.044677734375,0.969482421875
2020-08-15 15:38:15.478314,-0.03173828125,-0.033935546875,0.965087890625
2020-08-15 15:38:15.497695,-0.046142578125,-0.033203125,0.968017578125
2020-08-15 15:38:15.517128,-0.032470703125,-0.0341796875,0.970458984375
2020-08-15 15:38:15.536901,-0.02978515625,-0.03369140625,0.970703125
2020-08-15 15:38:15.556155,-0.03173828125,-0.03564453125,0.969970703125
2020-08-15 15:38:15.575475,-0.029296875,-0.033447265625,0.972412109375
2020-08-15 15:38:15.594769,-0.034912109375,-0.030029296875,0.968505859375
2020-08-15 15:38:15.614132,-0.017822265625,-0.02783203125,0.96875
2020-08-15 15:38:15.633502,-0.029052734375,-0.03466796875,0.970458984375
2020-08-15 15:38:15.652843,-0.031494140625,-0.036865234375,0.971435546875
2020-08-15 15:38:15.672174,-0.03125,-0.029052734375,0.964599609375
2020-08-15 15:38:15.691570,-0.0322265625,-0.029296875,0.967529296875
2020-08-15 15:38:15.710692,-0.027099609375,-0.03369140625,0.973388671875
2020-08-15 15:38:15.730185,-0.0458984375,-0.029541015625,0.9697265625
2020-08-15 15:38:15.749605,-0.033203125,-0.03271484375,0.97998046875
2020-08-15 15:38:15.769041,-0.0439453125,-0.031982421875,0.968994140625
2020-08-15 15:38:15.788208,-0.030029296875,-0.029541015625,0.973876953125
2020-08-15 15:38:15.807501,-0.031494140625,-0.0302734375,0.9716796875
2020-08-15 15:38:15.827233,-0.046875,-0.030517578125,0.971435546875
2020-08-15 15:38:15.847201,-0.045166015625,-0.03466796875,0.971923828125
2020-08-15 15:38:15.866533,-0.016357421875,-0.017822265625,0.974609375
2020-08-15 15:38:15.885800,-0.02880859375,-0.0458984375,0.971435546875
2020-08-15 15:38:15.905414,-0.032958984375,-0.0283203125,0.965087890625
2020-08-15 15:38:15.924745,-0.0458984375,-0.033203125,0.982421875
2020-08-15 15:38:15.944259,-0.033447265625,-0.031982421875,0.97509765625
2020-08-15 15:38:15.963491,-0.031005859375,-0.038818359375,0.980712890625
2020-08-15 15:38:15.982788,-0.02978515625,-0.016357421875,0.96533203125
2020-08-15 15:38:16.002081,-0.031494140625,-0.033203125,0.97119140625
2020-08-15 15:38:16.021404,-0.02880859375,-0.03271484375,0.953857421875
2020-08-15 15:38:16.040759,-0.0283203125,-0.0361328125,0.9697265625
2020-08-15 15:38:16.060200,-0.0302734375,-0.0341796875,0.976318359375
2020-08-15 15:38:16.079556,-0.029541015625,-0.029541015625,0.96923828125
2020-08-15 15:38:16.098977,-0.03271484375,-0.03369140625,0.970703125
2020-08-15 15:38:16.118529,-0.0283203125,-0.031982421875,0.9736328125
2020-08-15 15:38:16.137889,-0.031005859375,-0.031494140625,0.968017578125
2020-08-15 15:38:16.157598,-0.0341796875,-0.025390625,0.97119140625
2020-08-15 15:38:16.177270,-0.03173828125,-0.034423828125,0.970703125
2020-08-15 15:38:16.196753,-0.033935546875,-0.031982421875,0.971923828125
2020-08-15 15:38:16.216037,-0.02783203125,-0.03466796875,0.96533203125
2020-08-15 15:38:16.235441,-0.01611328125,-0.031494140625,0.973388671875
2020-08-15 15:38:16.254815,-0.0302734375,-0.0361328125,0.972900390625
2020-08-15 15:38:16.274239,-0.031982421875,-0.03466796875,0.969482421875
2020-08-15 15:38:16.293664,-0.029541015625,-0.029052734375,0.97607421875
2020-08-15 15:38:16.312980,-0.031005859375,-0.028076171875,0.96728515625
2020-08-15 15:38:16.332241,-0.028076171875,-0.0166015625,0.971923828125
2020-08-15 15:38:16.351623,-0.02978515625,-0.029541015625,0.972412109375
2020-08-15 15:38:16.370978,-0.0302734375,-0.03173828125,0.97021484375
2020-08-15 15:38:16.390357,-0.03271484375,-0.01611328125,0.97314453125
2020-08-15 15:38:16.409995,-0.03369140625,-0.03173828125,0.96826171875
2020-08-15 15:38:16.429392,-0.032958984375,-0.034423828125,0.9736328125
2020-08-15 15:38:16.448920,-0.0302734375,-0.0302734375,0.9736328125
2020-08-15 15:38:16.468371,-0.034423828125,-0.01611328125,0.953857421875
2020-08-15 15:38:16.487708,-0.01806640625,-0.02978515625,0.967041015625
2020-08-15 15:38:16.507337,-0.03515625,-0.025146484375,0.96923828125
2020-08-15 15:38:16.526757,-0.032958984375,-0.03369140625,0.966796875
2020-08-15 15:38:16.546056,-0.030517578125,-0.0322265625,0.97216796875
2020-08-15 15:38:16.565669,-0.029541015625,-0.032958984375,0.965576171875
2020-08-15 15:38:16.584934,-0.0322265625,-0.032958984375,0.971923828125
2020-08-15 15:38:16.604282,-0.034912109375,-0.034423828125,0.9677734375
2020-08-15 15:38:16.623580,-0.02783203125,-0.031494140625,0.9697265625
2020-08-15 15:38:16.642917,-0.02978515625,-0.033447265625,0.9736328125
2020-08-15 15:38:16.662498,-0.04541015625,-0.033203125,0.972412109375
2020-08-15 15:38:16.681861,-0.0322265625,-0.033935546875,0.971923828125
2020-08-15 15:38:16.702088,-0.03369140625,-0.031494140625,0.973388671875
2020-08-15 15:38:16.721339,-0.031005859375,-0.03515625,0.970703125
2020-08-15 15:38:16.740785,-0.02978515625,-0.030029296875,0.97412109375
2020-08-15 15:38:16.760107,-0.029541015625,-0.0283203125,0.9716796875
2020-08-15 15:38:16.779702,-0.03125,-0.03515625,0.9736328125
2020-08-15 15:38:16.799085,-0.031494140625,-0.032958984375,0.972412109375
2020-08-15 15:38:16.819108,-0.03564453125,-0.02978515625,0.974609375
2020-08-15 15:38:16.838471,-0.03125,-0.031982421875,0.970458984375
2020-08-15 15:38:16.857819,-0.031005859375,-0.03076171875,0.97509765625
2020-08-15 15:38:16.877407,-0.028076171875,-0.045166015625,0.974365234375
2020-08-15 15:38:16.896764,-0.031982421875,-0.03271484375,0.967041015625
2020-08-15 15:38:16.916358,-0.029296875,-0.03173828125,0.973388671875
2020-08-15 15:38:16.935655,-0.0322265625,-0.029541015625,0.97216796875
2020-08-15 15:38:16.954918,-0.033447265625,-0.03173828125,0.983642578125
2020-08-15 15:38:16.974752,-0.030029296875,-0.029541015625,0.97314453125
2020-08-15 15:38:16.994066,-0.024658203125,-0.0302734375,0.984130859375
2020-08-15 15:38:17.013621,-0.0458984375,-0.031494140625,0.970947265625
2020-08-15 15:38:17.033007,-0.01611328125,-0.01708984375,0.96435546875
2020-08-15 15:38:17.052297,-0.03564453125,-0.031494140625,0.977294921875
2020-08-15 15:38:17.071958,-0.03369140625,-0.030517578125,0.97021484375
2020-08-15 15:38:17.091252,-0.028076171875,-0.03369140625,0.95361328125
2020-08-15 15:38:17.110583,-0.03125,-0.031005859375,0.97119140625
2020-08-15 15:38:17.129993,-0.02880859375,-0.043212890625,0.9814453125
2020-08-15 15:38:17.149446,-0.046875,-0.03076171875,0.97021484375
2020-08-15 15:38:17.168919,-0.0322265625,-0.030517578125,0.95458984375
2020-08-15 15:38:17.188375,-0.027099609375,-0.035400390625,0.97509765625
2020-08-15 15:38:17.207514,-0.03466796875,-0.03369140625,0.9697265625
2020-08-15 15:38:17.226924,-0.034423828125,-0.04443359375,0.9560546875
2020-08-15 15:38:17.246324,-0.031982421875,-0.03369140625,0.971435546875
2020-08-15 15:38:17.265627,-0.030517578125,-0.03271484375,0.9765625
2020-08-15 15:38:17.284716,-0.02880859375,-0.030517578125,0.972900390625
2020-08-15 15:38:17.304062,-0.032958984375,-0.031494140625,0.958984375
2020-08-15 15:38:17.323431,-0.028564453125,-0.03271484375,0.968994140625
2020-08-15 15:38:17.342711,-0.03125,-0.0322265625,0.953857421875
2020-08-15 15:38:17.362037,-0.033447265625,-0.03564453125,0.971923828125
2020-08-15 15:38:17.381266,-0.031982421875,-0.0341796875,0.96630859375
2020-08-15 15:38:17.400551,-0.03466796875,-0.035888671875,0.972412109375
2020-08-15 15:38:17.420060,-0.043701171875,-0.028564453125,0.97412109375
2020-08-15 15:38:17.439494,-0.0283203125,-0.031982421875,0.965087890625
2020-08-15 15:38:17.458728,-0.030517578125,-0.030517578125,0.970703125
2020-08-15 15:38:17.478158,-0.025634765625,-0.0341796875,0.9697265625
2020-08-15 15:38:17.497452,-0.02880859375,-0.034423828125,0.9638671875
2020-08-15 15:38:17.517461,-0.026611328125,-0.046142578125,0.96337890625
2020-08-15 15:38:17.536841,-0.030029296875,-0.03271484375,0.97412109375
2020-08-15 15:38:17.556146,-0.03076171875,-0.01611328125,0.978271484375
2020-08-15 15:38:17.575477,-0.030029296875,-0.028076171875,0.9736328125
2020-08-15 15:38:17.594834,-0.016357421875,-0.046630859375,0.96630859375
2020-08-15 15:38:17.613998,-0.027587890625,-0.02978515625,0.966064453125
2020-08-15 15:38:17.633362,-0.029296875,-0.032958984375,0.964599609375
2020-08-15 15:38:17.652536,-0.044677734375,-0.029052734375,0.953369140625
2020-08-15 15:38:17.672558,-0.036865234375,-0.031494140625,0.96630859375
2020-08-15 15:38:17.692117,-0.029052734375,-0.03271484375,0.97265625
2020-08-15 15:38:17.711015,-0.031982421875,-0.034423828125,0.968505859375
2020-08-15 15:38:17.730534,-0.029052734375,-0.028076171875,0.97021484375
2020-08-15 15:38:17.755495,-0.031494140625,-0.031494140625,0.964599609375
2020-08-15 15:38:17.774844,-0.0322265625,-0.031982421875,0.9619140625
2020-08-15 15:38:17.794476,-0.028564453125,-0.035400390625,0.9697265625
2020-08-15 15:38:17.813845,-0.03369140625,-0.016357421875,0.965576171875
2020-08-15 15:38:17.833133,-0.02734375,-0.033203125,0.970703125
2020-08-15 15:38:17.852162,-0.02880859375,-0.03369140625,0.966552734375
2020-08-15 15:38:17.871537,-0.029296875,-0.031494140625,0.984130859375
2020-08-15 15:38:17.891044,-0.046630859375,-0.031494140625,0.953369140625
2020-08-15 15:38:17.910421,-0.03271484375,-0.031494140625,0.9755859375
2020-08-15 15:38:17.929948,-0.0458984375,-0.03369140625,0.953857421875
2020-08-15 15:38:17.949470,-0.03369140625,-0.030517578125,0.97314453125
2020-08-15 15:38:17.969060,-0.029296875,-0.031494140625,0.9736328125
2020-08-15 15:38:17.988437,-0.034912109375,-0.02880859375,0.973876953125
2020-08-15 15:38:18.008215,-0.027099609375,-0.045654296875,0.975341796875
2020-08-15 15:38:18.027775,-0.03125,-0.046630859375,0.983642578125
2020-08-15 15:38:18.047205,-0.029052734375,-0.030029296875,0.976318359375
2020-08-15 15:38:18.066641,-0.01708984375,-0.029541015625,0.974853515625
2020-08-15 15:38:18.085876,-0.028564453125,-0.02783203125,0.969970703125
2020-08-15 15:38:18.105432,-0.0283203125,-0.0341796875,0.966796875
2020-08-15 15:38:18.124580,-0.046875,-0.019775390625,0.974853515625
2020-08-15 15:38:18.143881,-0.030029296875,-0.033203125,0.972412109375
2020-08-15 15:38:18.163180,-0.0322265625,-0.031982421875,0.972412109375
2020-08-15 15:38:18.182692,-0.044189453125,-0.0302734375,0.9765625
2020-08-15 15:38:18.202117,-0.030029296875,-0.03076171875,0.9736328125
2020-08-15 15:38:18.221510,-0.02783203125,-0.04638671875,0.971435546875
2020-08-15 15:38:18.241051,-0.028564453125,-0.03173828125,0.97265625
2020-08-15 15:38:18.260402,-0.029541015625,-0.0458984375,0.972412109375
2020-08-15 15:38:18.279811,-0.03173828125,-0.034912109375,0.955322265625
2020-08-15 15:38:18.300006,-0.03369140625,-0.0302734375,0.969482421875
2020-08-15 15:38:18.319471,-0.030029296875,-0.0322265625,0.967041015625
2020-08-15 15:38:18.338903,-0.02783203125,-0.028564453125,0.970458984375
2020-08-15 15:38:18.358406,-0.033447265625,-0.03369140625,0.9765625
2020-08-15 15:38:18.377697,-0.02734375,-0.046630859375,0.95556640625
2020-08-15 15:38:18.397002,-0.0302734375,-0.030517578125,0.974365234375
2020-08-15 15:38:18.416403,-0.02880859375,-0.025634765625,0.95654296875
2020-08-15 15:38:18.435821,-0.02685546875,-0.03076171875,0.968505859375
2020-08-15 15:38:18.454964,-0.033203125,-0.031005859375,0.970947265625
2020-08-15 15:38:18.474337,-0.029052734375,-0.046630859375,0.97119140625
2020-08-15 15:38:18.493592,-0.030029296875,-0.017822265625,0.973876953125
2020-08-15 15:38:18.513031,-0.03125,-0.026123046875,0.967529296875
2020-08-15 15:38:18.532056,-0.01611328125,-0.028076171875,0.974853515625
2020-08-15 15:38:18.551635,-0.02880859375,-0.03466796875,0.95458984375
2020-08-15 15:38:18.571037,-0.03173828125,-0.0322265625,0.97021484375
2020-08-15 15:38:18.590408,-0.029541015625,-0.029541015625,0.95458984375
2020-08-15 15:38:18.610268,-0.018798828125,-0.03466796875,0.9697265625
2020-08-15 15:38:18.629616,-0.018798828125,-0.03076171875,0.966064453125
2020-08-15 15:38:18.649361,-0.031982421875,-0.016357421875,0.96484375
2020-08-15 15:38:18.668886,-0.030517578125,-0.030517578125,0.9775390625
2020-08-15 15:38:18.688347,-0.032470703125,-0.04443359375,0.970703125
2020-08-15 15:38:18.707470,-0.015869140625,-0.01806640625,0.962158203125
2020-08-15 15:38:18.726895,-0.028564453125,-0.02978515625,0.96435546875
2020-08-15 15:38:18.746142,-0.02783203125,-0.01806640625,0.98193359375
2020-08-15 15:38:18.765417,-0.029052734375,-0.018310546875,0.954833984375
2020-08-15 15:38:18.785821,-0.029541015625,-0.0302734375,0.971923828125
2020-08-15 15:38:18.804922,-0.029541015625,-0.015869140625,0.973876953125
2020-08-15 15:38:18.824268,-0.029541015625,-0.017578125,0.97802734375
2020-08-15 15:38:18.843673,-0.03125,-0.031982421875,0.9658203125
2020-08-15 15:38:18.863097,-0.03466796875,-0.0302734375,0.96923828125
2020-08-15 15:38:18.882456,-0.027587890625,-0.04541015625,0.983154296875
2020-08-15 15:38:18.901758,-0.031005859375,-0.032958984375,0.967529296875
2020-08-15 15:38:18.921892,-0.030517578125,-0.030517578125,0.963134765625
2020-08-15 15:38:18.942927,-0.01708984375,-0.03076171875,0.955322265625
2020-08-15 15:38:18.962143,-0.03515625,-0.017822265625,0.983642578125
2020-08-15 15:38:18.981518,-0.024658203125,-0.046630859375,0.97021484375
2020-08-15 15:38:19.000814,-0.028564453125,-0.032470703125,0.97265625
2020-08-15 15:38:19.020285,-0.029541015625,-0.03564453125,0.98291015625
2020-08-15 15:38:19.039859,-0.03369140625,-0.03173828125,0.973388671875
2020-08-15 15:38:19.059442,-0.0302734375,-0.020263671875,0.967529296875
2020-08-15 15:38:19.079002,-0.03369140625,-0.03173828125,0.972900390625
2020-08-15 15:38:19.098451,-0.026611328125,-0.02978515625,0.974853515625
2020-08-15 15:38:19.117615,-0.032958984375,-0.032470703125,0.971435546875
2020-08-15 15:38:19.137555,-0.029052734375,-0.02978515625,0.976806640625
2020-08-15 15:38:19.157027,-0.030029296875,-0.033203125,0.95849609375
2020-08-15 15:38:19.176305,-0.033447265625,-0.031982421875,0.965576171875
2020-08-15 15:38:19.195721,-0.03076171875,-0.034912109375,0.967041015625
2020-08-15 15:38:19.214895,-0.031494140625,-0.033935546875,0.953857421875
2020-08-15 15:38:19.234236,-0.046142578125,-0.017822265625,0.976806640625
2020-08-15 15:38:19.253622,-0.030029296875,-0.033935546875,0.971435546875
2020-08-15 15:38:19.273010,-0.01611328125,-0.031982421875,0.973388671875
2020-08-15 15:38:19.292313,-0.0283203125,-0.03271484375,0.979248046875
2020-08-15 15:38:19.311591,-0.0302734375,-0.02880859375,0.973876953125
2020-08-15 15:38:19.331120,-0.032470703125,-0.017822265625,0.973388671875
2020-08-15 15:38:19.350473,-0.033447265625,-0.030517578125,0.973388671875
2020-08-15 15:38:19.369996,-0.03271484375,-0.03173828125,0.97265625
2020-08-15 15:38:19.389447,-0.03125,-0.016357421875,0.96533203125
2020-08-15 15:38:19.408900,-0.032958984375,-0.032470703125,0.97021484375
2020-08-15 15:38:19.428442,-0.030517578125,-0.02685546875,0.97412109375
2020-08-15 15:38:19.447846,-0.030517578125,-0.0322265625,0.970458984375
2020-08-15 15:38:19.467257,-0.0283203125,-0.0458984375,0.971923828125
2020-08-15 15:38:19.486539,-0.03271484375,-0.029052734375,0.97021484375
2020-08-15 15:38:19.506236,-0.029296875,-0.03076171875,0.9580078125
2020-08-15 15:38:19.525460,-0.03076171875,-0.03466796875,0.968505859375
2020-08-15 15:38:19.544764,-0.031005859375,-0.046875,0.96533203125
2020-08-15 15:38:19.564160,-0.045166015625,-0.016357421875,0.975830078125
2020-08-15 15:38:19.583574,-0.029541015625,-0.03173828125,0.96533203125
2020-08-15 15:38:19.602910,-0.033203125,-0.0185546875,0.97607421875
2020-08-15 15:38:19.622486,-0.029052734375,-0.02978515625,0.97412109375
2020-08-15 15:38:19.641801,-0.019775390625,-0.031982421875,0.9833984375
2020-08-15 15:38:19.661180,-0.01708984375,-0.036376953125,0.974853515625
2020-08-15 15:38:19.680506,-0.03125,-0.032470703125,0.9677734375
2020-08-15 15:38:19.699968,-0.03125,-0.03173828125,0.971923828125
2020-08-15 15:38:19.719331,-0.03173828125,-0.03173828125,0.975341796875
2020-08-15 15:38:19.738949,-0.029541015625,-0.01611328125,0.971923828125
2020-08-15 15:38:19.758391,-0.035400390625,-0.033203125,0.966552734375
2020-08-15 15:38:19.777667,-0.029541015625,-0.034423828125,0.956298828125
2020-08-15 15:38:19.797474,-0.029052734375,-0.033203125,0.971435546875
2020-08-15 15:38:19.816562,-0.02978515625,-0.032958984375,0.964111328125
2020-08-15 15:38:19.836350,-0.02978515625,-0.03173828125,0.976806640625
2020-08-15 15:38:19.855601,-0.036865234375,-0.016845703125,0.975341796875
2020-08-15 15:38:19.875045,-0.045654296875,-0.0322265625,0.970458984375
2020-08-15 15:38:19.895110,-0.03271484375,-0.03125,0.96728515625
2020-08-15 15:38:19.914608,-0.02978515625,-0.02978515625,0.969970703125
2020-08-15 15:38:19.933825,-0.03369140625,-0.0322265625,0.97314453125
2020-08-15 15:38:19.953302,-0.030517578125,-0.032470703125,0.97412109375
2020-08-15 15:38:19.972582,-0.030517578125,-0.026611328125,0.96875
2020-08-15 15:38:19.991959,-0.028564453125,-0.04638671875,0.966552734375
2020-08-15 15:38:20.011739,-0.03076171875,-0.034423828125,0.970703125
2020-08-15 15:38:20.031087,-0.033447265625,-0.04638671875,0.97216796875
2020-08-15 15:38:20.050546,-0.02880859375,-0.0302734375,0.97509765625
2020-08-15 15:38:20.069955,-0.029052734375,-0.033203125,0.954345703125
2020-08-15 15:38:20.089361,-0.033203125,-0.030517578125,0.968505859375
2020-08-15 15:38:20.108772,-0.03076171875,-0.03466796875,0.97412109375
2020-08-15 15:38:20.128172,-0.032958984375,-0.03564453125,0.969970703125
2020-08-15 15:38:20.147649,-0.031982421875,-0.033935546875,0.98291015625
2020-08-15 15:38:20.167073,-0.027099609375,-0.031494140625,0.9716796875
2020-08-15 15:38:20.186335,-0.03271484375,-0.031982421875,0.969970703125
2020-08-15 15:38:20.205438,-0.015869140625,-0.046142578125,0.955810546875
2020-08-15 15:38:20.224703,-0.03271484375,-0.032470703125,0.96826171875
2020-08-15 15:38:20.244099,-0.032958984375,-0.03515625,0.96875
2020-08-15 15:38:20.263906,-0.04541015625,-0.03173828125,0.974365234375
2020-08-15 15:38:20.283188,-0.028564453125,-0.033203125,0.970703125
2020-08-15 15:38:20.302552,-0.030517578125,-0.044677734375,0.9716796875
2020-08-15 15:38:20.321863,-0.018798828125,-0.027587890625,0.953369140625
2020-08-15 15:38:20.341109,-0.0283203125,-0.03173828125,0.974609375
2020-08-15 15:38:20.360473,-0.0439453125,-0.032470703125,0.970703125
2020-08-15 15:38:20.379880,-0.029541015625,-0.031982421875,0.975830078125
2020-08-15 15:38:20.399253,-0.028076171875,-0.03271484375,0.968994140625
2020-08-15 15:38:20.418752,-0.029541015625,-0.033203125,0.97705078125
2020-08-15 15:38:20.438125,-0.032470703125,-0.032470703125,0.976806640625
2020-08-15 15:38:20.458057,-0.03076171875,-0.032958984375,0.9697265625
2020-08-15 15:38:20.477420,-0.031982421875,-0.03369140625,0.97021484375
2020-08-15 15:38:20.496687,-0.030029296875,-0.046630859375,0.959228515625
2020-08-15 15:38:20.516203,-0.028076171875,-0.033447265625,0.968505859375
2020-08-15 15:38:20.535410,-0.016845703125,-0.029296875,0.97119140625
2020-08-15 15:38:20.555627,-0.03369140625,-0.0322265625,0.95556640625
2020-08-15 15:38:20.574943,-0.03271484375,-0.03173828125,0.968505859375
2020-08-15 15:38:20.594260,-0.02783203125,-0.030029296875,0.955078125
2020-08-15 15:38:20.613665,-0.029296875,-0.03271484375,0.982177734375
2020-08-15 15:38:20.633068,-0.02880859375,-0.033203125,0.969482421875
2020-08-15 15:38:20.652380,-0.029296875,-0.029541015625,0.9697265625
2020-08-15 15:38:20.671767,-0.017822265625,-0.04541015625,0.972412109375
2020-08-15 15:38:20.691312,-0.03076171875,-0.037109375,0.974853515625
2020-08-15 15:38:20.710614,-0.03076171875,-0.016357421875,0.978759765625
2020-08-15 15:38:20.730069,-0.0244140625,-0.031494140625,0.97509765625
2020-08-15 15:38:20.749441,-0.016845703125,-0.03369140625,0.97021484375
2020-08-15 15:38:20.768949,-0.03564453125,-0.033935546875,0.9755859375
2020-08-15 15:38:20.788469,-0.03173828125,-0.032470703125,0.972412109375
2020-08-15 15:38:20.807784,-0.033203125,-0.030029296875,0.97314453125
2020-08-15 15:38:20.827471,-0.031982421875,-0.0302734375,0.97509765625
2020-08-15 15:38:20.846770,-0.031982421875,-0.028564453125,0.97509765625
2020-08-15 15:38:20.867386,-0.0283203125,-0.031982421875,0.98193359375
2020-08-15 15:38:20.886837,-0.03125,-0.033447265625,0.966552734375
2020-08-15 15:38:20.906254,-0.02978515625,-0.0322265625,0.969482421875
2020-08-15 15:38:20.925647,-0.029296875,-0.032958984375,0.967041015625
2020-08-15 15:38:20.944930,-0.03271484375,-0.031494140625,0.968017578125
2020-08-15 15:38:20.964334,-0.0322265625,-0.033447265625,0.960205078125
2020-08-15 15:38:20.983712,-0.03125,-0.03271484375,0.969482421875
2020-08-15 15:38:21.003256,-0.033203125,-0.03369140625,0.9697265625
2020-08-15 15:38:21.022660,-0.02685546875,-0.029052734375,0.970703125
2020-08-15 15:38:21.042131,-0.029296875,-0.029296875,0.9755859375
2020-08-15 15:38:21.061647,-0.0341796875,-0.02880859375,0.962646484375
2020-08-15 15:38:21.081036,-0.033935546875,-0.0322265625,0.96630859375
2020-08-15 15:38:21.100605,-0.017333984375,-0.017578125,0.97509765625
2020-08-15 15:38:21.120165,-0.03369140625,-0.02783203125,0.97119140625
2020-08-15 15:38:21.139709,-0.017822265625,-0.02880859375,0.972900390625
2020-08-15 15:38:21.159264,-0.03271484375,-0.03076171875,0.974853515625
2020-08-15 15:38:21.178858,-0.03125,-0.034912109375,0.967041015625
2020-08-15 15:38:21.198322,-0.046875,-0.03125,0.97021484375
2020-08-15 15:38:21.217660,-0.03076171875,-0.033447265625,0.9677734375
2020-08-15 15:38:21.237219,-0.016845703125,-0.032470703125,0.96435546875
2020-08-15 15:38:21.256463,-0.031982421875,-0.032470703125,0.966796875
2020-08-15 15:38:21.276206,-0.03173828125,-0.017578125,0.9697265625
2020-08-15 15:38:21.295623,-0.02978515625,-0.035400390625,0.97607421875
2020-08-15 15:38:21.315018,-0.032470703125,-0.033203125,0.970458984375
2020-08-15 15:38:21.334298,-0.0302734375,-0.046875,0.977294921875
2020-08-15 15:38:21.353687,-0.031982421875,-0.034912109375,0.969482421875
2020-08-15 15:38:21.373495,-0.02685546875,-0.030029296875,0.97412109375
2020-08-15 15:38:21.392825,-0.034912109375,-0.029541015625,0.97412109375
2020-08-15 15:38:21.412336,-0.03369140625,-0.017333984375,0.974609375
2020-08-15 15:38:21.431692,-0.03173828125,-0.032470703125,0.96728515625
2020-08-15 15:38:21.451221,-0.02587890625,-0.03515625,0.95556640625
2020-08-15 15:38:21.470582,-0.029541015625,-0.0302734375,0.96337890625
2020-08-15 15:38:21.490239,-0.03271484375,-0.030029296875,0.975341796875
2020-08-15 15:38:21.509942,-0.033935546875,-0.0302734375,0.9716796875
2020-08-15 15:38:21.529427,-0.031982421875,-0.029541015625,0.969482421875
2020-08-15 15:38:21.548916,-0.033447265625,-0.03271484375,0.976806640625
2020-08-15 15:38:21.568315,-0.029541015625,-0.033203125,0.981689453125
2020-08-15 15:38:21.587738,-0.030029296875,-0.03076171875,0.970947265625
2020-08-15 15:38:21.607176,-0.034423828125,-0.029541015625,0.97216796875
2020-08-15 15:38:21.626525,-0.034912109375,-0.033935546875,0.970458984375
2020-08-15 15:38:21.645933,-0.034423828125,-0.031005859375,0.9677734375
2020-08-15 15:38:21.665154,-0.02978515625,-0.028564453125,0.967529296875
2020-08-15 15:38:21.684723,-0.029541015625,-0.032958984375,0.97412109375
2020-08-15 15:38:21.703675,-0.029052734375,-0.03515625,0.97509765625
2020-08-15 15:38:21.723461,-0.029052734375,-0.046142578125,0.95703125
2020-08-15 15:38:21.742719,-0.0283203125,-0.034912109375,0.98193359375
2020-08-15 15:38:21.762079,-0.0322265625,-0.029541015625,0.97119140625
2020-08-15 15:38:21.781738,-0.03369140625,-0.03271484375,0.968505859375
2020-08-15 15:38:21.801024,-0.03076171875,-0.046875,0.969482421875
2020-08-15 15:38:21.820546,-0.03125,-0.030517578125,0.969970703125
2020-08-15 15:38:21.839896,-0.029052734375,-0.0322265625,0.978271484375
2020-08-15 15:38:21.859383,-0.032958984375,-0.043701171875,0.978271484375
2020-08-15 15:38:21.878485,-0.03076171875,-0.031005859375,0.97265625
2020-08-15 15:38:21.897655,-0.02880859375,-0.032958984375,0.9716796875
2020-08-15 15:38:21.924374,-0.029541015625,-0.03125,0.970703125
2020-08-15 15:38:21.943865,-0.028564453125,-0.033935546875,0.979248046875
2020-08-15 15:38:21.963149,-0.046875,-0.034912109375,0.982666015625
2020-08-15 15:38:21.982321,-0.0302734375,-0.032470703125,0.9736328125
2020-08-15 15:38:22.001812,-0.030029296875,-0.016357421875,0.970947265625
2020-08-15 15:38:22.021181,-0.03173828125,-0.03369140625,0.96826171875
2020-08-15 15:38:22.040582,-0.028076171875,-0.03271484375,0.97314453125
2020-08-15 15:38:22.059971,-0.03271484375,-0.0458984375,0.981689453125
2020-08-15 15:38:22.079537,-0.032470703125,-0.030517578125,0.969482421875
2020-08-15 15:38:22.099017,-0.0302734375,-0.0302734375,0.984130859375
2020-08-15 15:38:22.119202,-0.0458984375,-0.033203125,0.9677734375
2020-08-15 15:38:22.138629,-0.029296875,-0.030517578125,0.966064453125
2020-08-15 15:38:22.158040,-0.02978515625,-0.016357421875,0.96435546875
2020-08-15 15:38:22.177242,-0.027587890625,-0.0283203125,0.968505859375
2020-08-15 15:38:22.196944,-0.029541015625,-0.031982421875,0.953125
2020-08-15 15:38:22.216301,-0.031982421875,-0.033203125,0.976318359375
2020-08-15 15:38:22.235710,-0.01904296875,-0.03173828125,0.953857421875
2020-08-15 15:38:22.255213,-0.031005859375,-0.032470703125,0.97119140625
2020-08-15 15:38:22.274542,-0.031005859375,-0.029052734375,0.95703125
2020-08-15 15:38:22.293984,-0.032470703125,-0.0341796875,0.972900390625
2020-08-15 15:38:22.313246,-0.033935546875,-0.032470703125,0.9765625
2020-08-15 15:38:22.332871,-0.03369140625,-0.015869140625,0.969970703125
2020-08-15 15:38:22.352199,-0.03173828125,-0.02978515625,0.96875
2020-08-15 15:38:22.371586,-0.026611328125,-0.030517578125,0.970703125
2020-08-15 15:38:22.390851,-0.02685546875,-0.015869140625,0.97265625
2020-08-15 15:38:22.410396,-0.0322265625,-0.0302734375,0.97021484375
2020-08-15 15:38:22.429521,-0.031494140625,-0.032958984375,0.984130859375
2020-08-15 15:38:22.449225,-0.0185546875,-0.035400390625,0.97216796875
2020-08-15 15:38:22.468546,-0.034912109375,-0.03369140625,0.973876953125
2020-08-15 15:38:22.487672,-0.028076171875,-0.0361328125,0.971923828125
2020-08-15 15:38:22.507443,-0.0283203125,-0.031982421875,0.973876953125
2020-08-15 15:38:22.526716,-0.03076171875,-0.02978515625,0.97216796875
2020-08-15 15:38:22.546111,-0.033203125,-0.026611328125,0.97216796875
2020-08-15 15:38:22.565376,-0.0322265625,-0.037353515625,0.96923828125
2020-08-15 15:38:22.584601,-0.04638671875,-0.017578125,0.974853515625
2020-08-15 15:38:22.604313,-0.029296875,-0.03564453125,0.96923828125
2020-08-15 15:38:22.623933,-0.0302734375,-0.016357421875,0.969970703125
2020-08-15 15:38:22.643676,-0.028564453125,-0.0244140625,0.97314453125
2020-08-15 15:38:22.662909,-0.031005859375,-0.03125,0.970947265625
2020-08-15 15:38:22.682406,-0.03271484375,-0.02978515625,0.97216796875
2020-08-15 15:38:22.701634,-0.031005859375,-0.032470703125,0.9736328125
2020-08-15 15:38:22.720628,-0.02880859375,-0.032958984375,0.966064453125
2020-08-15 15:38:22.740049,-0.031494140625,-0.030029296875,0.96826171875
2020-08-15 15:38:22.759443,-0.031982421875,-0.031982421875,0.967529296875
2020-08-15 15:38:22.778685,-0.017333984375,-0.031982421875,0.968994140625
2020-08-15 15:38:22.798110,-0.030029296875,-0.032958984375,0.968994140625
2020-08-15 15:38:22.817397,-0.033935546875,-0.046630859375,0.9619140625
2020-08-15 15:38:22.836483,-0.02685546875,-0.031005859375,0.969482421875
2020-08-15 15:38:22.855776,-0.04638671875,-0.03173828125,0.97216796875
2020-08-15 15:38:22.875258,-0.032470703125,-0.035400390625,0.970947265625
2020-08-15 15:38:22.894605,-0.029296875,-0.03173828125,0.955810546875
2020-08-15 15:38:22.914149,-0.032958984375,-0.02978515625,0.970458984375
2020-08-15 15:38:22.933634,-0.027099609375,-0.032958984375,0.97412109375
2020-08-15 15:38:22.952945,-0.0302734375,-0.032470703125,0.96923828125
2020-08-15 15:38:22.972302,-0.03076171875,-0.037353515625,0.97021484375
2020-08-15 15:38:22.991682,-0.029541015625,-0.032958984375,0.972412109375
2020-08-15 15:38:23.011467,-0.027099609375,-0.029541015625,0.963134765625
2020-08-15 15:38:23.030749,-0.028564453125,-0.03369140625,0.9697265625
2020-08-15 15:38:23.050300,-0.0283203125,-0.03271484375,0.953125
2020-08-15 15:38:23.069738,-0.045654296875,-0.0283203125,0.973388671875
2020-08-15 15:38:23.089187,-0.0302734375,-0.03271484375,0.966796875
2020-08-15 15:38:23.108730,-0.033447265625,-0.017578125,0.9755859375
2020-08-15 15:38:23.128216,-0.029541015625,-0.031494140625,0.972900390625
2020-08-15 15:38:23.147626,-0.0166015625,-0.030029296875,0.978271484375
2020-08-15 15:38:23.167087,-0.03076171875,-0.032958984375,0.973388671875
2020-08-15 15:38:23.186479,-0.036865234375,-0.046142578125,0.975830078125
2020-08-15 15:38:23.205601,-0.029541015625,-0.027587890625,0.970947265625
2020-08-15 15:38:23.224878,-0.032470703125,-0.0302734375,0.97265625
2020-08-15 15:38:23.244224,-0.03125,-0.032470703125,0.96435546875
2020-08-15 15:38:23.263646,-0.029296875,-0.0458984375,0.968505859375
2020-08-15 15:38:23.282982,-0.030029296875,-0.031982421875,0.966552734375
2020-08-15 15:38:23.302007,-0.03125,-0.0341796875,0.970458984375
2020-08-15 15:38:23.321503,-0.031005859375,-0.029296875,0.953125
2020-08-15 15:38:23.340492,-0.030517578125,-0.03564453125,0.97802734375
2020-08-15 15:38:23.359635,-0.030517578125,-0.032958984375,0.96826171875
2020-08-15 15:38:23.379150,-0.027587890625,-0.03466796875,0.9833984375
2020-08-15 15:38:23.398482,-0.028564453125,-0.01806640625,0.971923828125
2020-08-15 15:38:23.417860,-0.03076171875,-0.02783203125,0.973388671875
2020-08-15 15:38:23.437556,-0.032958984375,-0.01806640625,0.9833984375
2020-08-15 15:38:23.456745,-0.03271484375,-0.031494140625,0.971923828125
2020-08-15 15:38:23.475819,-0.02978515625,-0.045654296875,0.97705078125
2020-08-15 15:38:23.495218,-0.046142578125,-0.030029296875,0.971923828125
2020-08-15 15:38:23.514295,-0.034423828125,-0.0302734375,0.963623046875
2020-08-15 15:38:23.533674,-0.02978515625,-0.03466796875,0.969482421875
2020-08-15 15:38:23.552999,-0.0302734375,-0.016845703125,0.983642578125
2020-08-15 15:38:23.572341,-0.0166015625,-0.017822265625,0.973876953125
2020-08-15 15:38:23.612271,-0.03173828125,-0.029296875,0.968994140625
2020-08-15 15:38:23.629399,-0.03076171875,-0.032470703125,0.9677734375
2020-08-15 15:38:23.648539,-0.03173828125,-0.03125,0.97314453125
2020-08-15 15:38:23.668068,-0.03125,-0.03076171875,0.9716796875
2020-08-15 15:38:23.687371,-0.046875,-0.03125,0.95849609375
2020-08-15 15:38:23.711245,-0.0302734375,-0.0322265625,0.973388671875
2020-08-15 15:38:23.728630,-0.0302734375,-0.03125,0.966064453125
2020-08-15 15:38:23.749018,-0.029541015625,-0.046875,0.95556640625
2020-08-15 15:38:23.768430,-0.018310546875,-0.032958984375,0.9716796875
2020-08-15 15:38:23.787861,-0.030029296875,-0.028076171875,0.9736328125
2020-08-15 15:38:23.807392,-0.027587890625,-0.01611328125,0.969970703125
2020-08-15 15:38:23.827068,-0.028076171875,-0.01708984375,0.9716796875
2020-08-15 15:38:23.846644,-0.0263671875,-0.02880859375,0.964599609375
2020-08-15 15:38:23.865923,-0.028564453125,-0.033447265625,0.973876953125
2020-08-15 15:38:23.885487,-0.03369140625,-0.02783203125,0.976318359375
2020-08-15 15:38:23.905172,-0.02783203125,-0.035400390625,0.973388671875
2020-08-15 15:38:23.931970,-0.015869140625,-0.030029296875,0.966552734375
2020-08-15 15:38:23.951566,-0.030517578125,-0.0302734375,0.971923828125
2020-08-15 15:38:23.970964,-0.02734375,-0.03173828125,0.982177734375
2020-08-15 15:38:23.992168,-0.03076171875,-0.03271484375,0.977294921875
2020-08-15 15:38:24.021521,-0.01708984375,-0.0458984375,0.970458984375
2020-08-15 15:38:24.038879,-0.01708984375,-0.04638671875,0.97314453125
2020-08-15 15:38:24.058877,-0.029052734375,-0.02734375,0.97412109375
2020-08-15 15:38:24.078487,-0.032958984375,-0.016357421875,0.972412109375
2020-08-15 15:38:24.097793,-0.046142578125,-0.031982421875,0.9755859375
2020-08-15 15:38:24.117695,-0.028076171875,-0.03515625,0.97509765625
2020-08-15 15:38:24.137707,-0.036376953125,-0.046875,0.97314453125
2020-08-15 15:38:24.158485,-0.03271484375,-0.030029296875,0.968994140625
2020-08-15 15:38:24.177812,-0.029296875,-0.033203125,0.95556640625
2020-08-15 15:38:24.197291,-0.027099609375,-0.031005859375,0.968505859375
2020-08-15 15:38:24.216881,-0.0341796875,-0.029296875,0.97216796875
2020-08-15 15:38:24.241730,-0.0302734375,-0.02685546875,0.9736328125
2020-08-15 15:38:24.261540,-0.044921875,-0.032470703125,0.96826171875
2020-08-15 15:38:24.280900,-0.044921875,-0.0341796875,0.97119140625
2020-08-15 15:38:24.300094,-0.0283203125,-0.02978515625,0.974609375
2020-08-15 15:38:24.331319,-0.046875,-0.0166015625,0.97119140625
2020-08-15 15:38:24.348614,-0.032958984375,-0.030517578125,0.982666015625
2020-08-15 15:38:24.368485,-0.016357421875,-0.03076171875,0.96826171875
2020-08-15 15:38:24.388024,-0.032958984375,-0.029296875,0.970947265625
2020-08-15 15:38:24.408073,-0.029296875,-0.030517578125,0.975341796875
2020-08-15 15:38:24.427468,-0.03271484375,-0.032958984375,0.973388671875
2020-08-15 15:38:24.446956,-0.03076171875,-0.03173828125,0.98388671875
2020-08-15 15:38:24.466717,-0.029296875,-0.02978515625,0.97265625
2020-08-15 15:38:24.485947,-0.017822265625,-0.035400390625,0.978515625
2020-08-15 15:38:24.505399,-0.03125,-0.02880859375,0.972900390625
2020-08-15 15:38:24.525259,-0.045166015625,-0.01708984375,0.956298828125
2020-08-15 15:38:24.551157,-0.045166015625,-0.02978515625,0.96923828125
2020-08-15 15:38:24.568561,-0.02783203125,-0.031494140625,0.966552734375
2020-08-15 15:38:24.587616,-0.046875,-0.04638671875,0.97705078125
2020-08-15 15:38:24.606810,-0.032958984375,-0.0302734375,0.974853515625
2020-08-15 15:38:24.640545,-0.030517578125,-0.031982421875,0.97216796875
2020-08-15 15:38:24.657768,-0.0302734375,-0.02978515625,0.968994140625
2020-08-15 15:38:24.677780,-0.031005859375,-0.0302734375,0.970947265625
2020-08-15 15:38:24.696981,-0.02978515625,-0.03076171875,0.970703125
2020-08-15 15:38:24.716298,-0.031494140625,-0.029052734375,0.96875
2020-08-15 15:38:24.735597,-0.031005859375,-0.045654296875,0.9833984375
2020-08-15 15:38:24.755234,-0.028076171875,-0.026123046875,0.968505859375
2020-08-15 15:38:24.774877,-0.0458984375,-0.03515625,0.97216796875
2020-08-15 15:38:24.794408,-0.03369140625,-0.0341796875,0.978759765625
2020-08-15 15:38:24.813787,-0.030517578125,-0.03076171875,0.970458984375
2020-08-15 15:38:24.833254,-0.02783203125,-0.032470703125,0.97021484375
2020-08-15 15:38:24.861700,-0.0302734375,-0.0458984375,0.970947265625
2020-08-15 15:38:24.879280,-0.032470703125,-0.03369140625,0.97119140625
2020-08-15 15:38:24.899226,-0.045166015625,-0.0341796875,0.974853515625
2020-08-15 15:38:24.918978,-0.030517578125,-0.031005859375,0.97216796875
2020-08-15 15:38:24.951163,-0.033203125,-0.02978515625,0.966796875
2020-08-15 15:38:24.968496,-0.028564453125,-0.029296875,0.970703125
2020-08-15 15:38:24.987781,-0.02978515625,-0.02978515625,0.970458984375
2020-08-15 15:38:25.007422,-0.02978515625,-0.0283203125,0.967529296875
2020-08-15 15:38:25.026755,-0.015869140625,-0.03271484375,0.969970703125
2020-08-15 15:38:25.046138,-0.031494140625,-0.04638671875,0.970458984375
2020-08-15 15:38:25.065455,-0.033203125,-0.03173828125,0.973876953125
2020-08-15 15:38:25.085427,-0.03076171875,-0.03369140625,0.9716796875
2020-08-15 15:38:25.104898,-0.03076171875,-0.03076171875,0.96728515625
2020-08-15 15:38:25.124288,-0.03076171875,-0.03271484375,0.976318359375
2020-08-15 15:38:25.143521,-0.0302734375,-0.034423828125,0.968994140625
2020-08-15 15:38:25.171133,-0.03271484375,-0.038818359375,0.971923828125
2020-08-15 15:38:25.188523,-0.029296875,-0.045654296875,0.956787109375
2020-08-15 15:38:25.210469,-0.03125,-0.031494140625,0.96728515625
2020-08-15 15:38:25.230316,-0.017333984375,-0.032958984375,0.972900390625
2020-08-15 15:38:25.261030,-0.03076171875,-0.042236328125,0.97021484375
2020-08-15 15:38:25.278788,-0.029541015625,-0.046630859375,0.972412109375
2020-08-15 15:38:25.298423,-0.033447265625,-0.015869140625,0.982666015625
2020-08-15 15:38:25.317778,-0.031982421875,-0.031982421875,0.97216796875
2020-08-15 15:38:25.337389,-0.034912109375,-0.035400390625,0.971435546875
2020-08-15 15:38:25.356858,-0.032470703125,-0.03369140625,0.971923828125
2020-08-15 15:38:25.376375,-0.030517578125,-0.031494140625,0.97314453125
2020-08-15 15:38:25.395704,-0.031982421875,-0.029052734375,0.979248046875
2020-08-15 15:38:25.415067,-0.0302734375,-0.034912109375,0.95654296875
2020-08-15 15:38:25.434950,-0.01611328125,-0.031982421875,0.957763671875
2020-08-15 15:38:25.454144,-0.03271484375,-0.033447265625,0.974609375
2020-08-15 15:38:25.481563,-0.046875,-0.028564453125,0.970458984375
2020-08-15 15:38:25.499008,-0.03271484375,-0.031494140625,0.97509765625
2020-08-15 15:38:25.518867,-0.033203125,-0.04541015625,0.9716796875
2020-08-15 15:38:25.538448,-0.046875,-0.035400390625,0.968994140625
2020-08-15 15:38:25.571380,-0.034912109375,-0.031494140625,0.9775390625
2020-08-15 15:38:25.589086,-0.030029296875,-0.031494140625,0.97216796875
2020-08-15 15:38:25.608659,-0.033935546875,-0.0166015625,0.970458984375
2020-08-15 15:38:25.628088,-0.030029296875,-0.031005859375,0.966552734375
2020-08-15 15:38:25.648197,-0.03125,-0.03173828125,0.97119140625
2020-08-15 15:38:25.667671,-0.0166015625,-0.03662109375,0.97705078125
2020-08-15 15:38:25.687532,-0.0283203125,-0.0341796875,0.973388671875
2020-08-15 15:38:25.706962,-0.03369140625,-0.033935546875,0.975341796875
2020-08-15 15:38:25.726376,-0.0166015625,-0.032470703125,0.958740234375
2020-08-15 15:38:25.746085,-0.03173828125,-0.033447265625,0.975341796875
2020-08-15 15:38:25.765461,-0.032470703125,-0.016845703125,0.978515625
2020-08-15 15:38:25.791989,-0.046142578125,-0.03173828125,0.9755859375
2020-08-15 15:38:25.811876,-0.02734375,-0.031982421875,0.9833984375
2020-08-15 15:38:25.831933,-0.016357421875,-0.030517578125,0.971435546875
2020-08-15 15:38:25.851275,-0.031982421875,-0.0283203125,0.971435546875
2020-08-15 15:38:25.881576,-0.030029296875,-0.03564453125,0.975830078125
2020-08-15 15:38:25.899223,-0.0302734375,-0.03369140625,0.970703125
2020-08-15 15:38:25.919168,-0.03173828125,-0.02978515625,0.973876953125
2020-08-15 15:38:25.938951,-0.03564453125,-0.02978515625,0.97265625
2020-08-15 15:38:25.958822,-0.044921875,-0.025634765625,0.97119140625
2020-08-15 15:38:25.977850,-0.017578125,-0.030517578125,0.973876953125
2020-08-15 15:38:25.999008,-0.02978515625,-0.030517578125,0.975830078125
2020-08-15 15:38:26.018533,-0.033447265625,-0.031982421875,0.97265625
2020-08-15 15:38:26.037858,-0.029296875,-0.0458984375,0.98388671875
2020-08-15 15:38:26.057843,-0.02734375,-0.033935546875,0.967041015625
2020-08-15 15:38:26.099244,-0.03125,-0.03271484375,0.9755859375
2020-08-15 15:38:26.116869,-0.035888671875,-0.03271484375,0.97216796875
2020-08-15 15:38:26.136798,-0.0341796875,-0.0302734375,0.97509765625
2020-08-15 15:38:26.156141,-0.029296875,-0.0322265625,0.95703125
2020-08-15 15:38:26.190135,-0.033447265625,-0.0341796875,0.972900390625
2020-08-15 15:38:26.207361,-0.031494140625,-0.03369140625,0.970458984375
2020-08-15 15:38:26.226806,-0.0302734375,-0.029296875,0.982421875
2020-08-15 15:38:26.246120,-0.03369140625,-0.030029296875,0.95654296875
2020-08-15 15:38:26.265949,-0.026123046875,-0.031005859375,0.975341796875
2020-08-15 15:38:26.285487,-0.030517578125,-0.031982421875,0.96630859375
2020-08-15 15:38:26.305325,-0.028564453125,-0.03564453125,0.96826171875
2020-08-15 15:38:26.324946,-0.029296875,-0.028564453125,0.972412109375
2020-08-15 15:38:26.344412,-0.030029296875,-0.033447265625,0.96728515625
2020-08-15 15:38:26.364621,-0.02783203125,-0.037353515625,0.976318359375
2020-08-15 15:38:26.383829,-0.034423828125,-0.016357421875,0.984130859375
2020-08-15 15:38:26.411767,-0.031494140625,-0.028564453125,0.97119140625
2020-08-15 15:38:26.431260,-0.017578125,-0.031982421875,0.970703125
2020-08-15 15:38:26.451081,-0.031982421875,-0.0361328125,0.9716796875
2020-08-15 15:38:26.470402,-0.031005859375,-0.027099609375,0.97509765625
2020-08-15 15:38:26.501413,-0.0439453125,-0.01611328125,0.968994140625
2020-08-15 15:38:26.518858,-0.0283203125,-0.029541015625,0.970458984375
2020-08-15 15:38:26.538568,-0.031982421875,-0.0322265625,0.96923828125
2020-08-15 15:38:26.558004,-0.04638671875,-0.044921875,0.982177734375
2020-08-15 15:38:26.577300,-0.031494140625,-0.030517578125,0.972412109375
2020-08-15 15:38:26.596733,-0.034423828125,-0.0341796875,0.968994140625
2020-08-15 15:38:26.616755,-0.0302734375,-0.033203125,0.97021484375
2020-08-15 15:38:26.636240,-0.0263671875,-0.032470703125,0.967529296875
2020-08-15 15:38:26.655662,-0.031005859375,-0.044921875,0.95458984375
2020-08-15 15:38:26.675210,-0.030029296875,-0.016357421875,0.9560546875
2020-08-15 15:38:26.694458,-0.0322265625,-0.02978515625,0.963623046875
2020-08-15 15:38:26.723695,-0.016357421875,-0.033203125,0.962890625
2020-08-15 15:38:26.743010,-0.032470703125,-0.0302734375,0.973876953125
2020-08-15 15:38:26.762573,-0.029296875,-0.031494140625,0.970458984375
2020-08-15 15:38:26.782229,-0.030517578125,-0.033447265625,0.973388671875
2020-08-15 15:38:26.819609,-0.03564453125,-0.03466796875,0.97216796875
2020-08-15 15:38:26.840139,-0.0341796875,-0.036376953125,0.97607421875
2020-08-15 15:38:26.858014,-0.03125,-0.03125,0.97412109375
2020-08-15 15:38:26.877504,-0.03515625,-0.032958984375,0.9560546875
2020-08-15 15:38:26.897288,-0.01611328125,-0.036376953125,0.96728515625
2020-08-15 15:38:26.916815,-0.017822265625,-0.045654296875,0.977294921875
2020-08-15 15:38:26.936488,-0.029052734375,-0.036376953125,0.968017578125
2020-08-15 15:38:26.955687,-0.015869140625,-0.046630859375,0.970458984375
2020-08-15 15:38:26.975385,-0.02880859375,-0.03564453125,0.973876953125
2020-08-15 15:38:26.994777,-0.045166015625,-0.045166015625,0.9755859375
2020-08-15 15:38:27.014417,-0.030517578125,-0.02978515625,0.97412109375
2020-08-15 15:38:27.033834,-0.03076171875,-0.031982421875,0.971923828125
2020-08-15 15:38:27.053218,-0.032470703125,-0.030029296875,0.959716796875
2020-08-15 15:38:27.072632,-0.01708984375,-0.0322265625,0.9794921875
2020-08-15 15:38:27.091786,-0.034423828125,-0.029296875,0.97265625
2020-08-15 15:38:27.111553,-0.031982421875,-0.029541015625,0.974853515625
2020-08-15 15:38:27.131135,-0.04638671875,-0.029296875,0.9755859375
2020-08-15 15:38:27.150541,-0.03271484375,-0.035400390625,0.968994140625
2020-08-15 15:38:27.170023,-0.03076171875,-0.03515625,0.970458984375
2020-08-15 15:38:27.189563,-0.02978515625,-0.032470703125,0.970458984375
2020-08-15 15:38:27.209334,-0.029541015625,-0.027099609375,0.96337890625
2020-08-15 15:38:27.228940,-0.025390625,-0.02880859375,0.968017578125
2020-08-15 15:38:27.248396,-0.02978515625,-0.02978515625,0.97119140625
2020-08-15 15:38:27.271053,-0.029541015625,-0.031494140625,0.966552734375
2020-08-15 15:38:27.290962,-0.028076171875,-0.030517578125,0.976806640625
2020-08-15 15:38:27.310795,-0.030029296875,-0.034423828125,0.981689453125
2020-08-15 15:38:27.330230,-0.03076171875,-0.030517578125,0.970703125
2020-08-15 15:38:27.349782,-0.03173828125,-0.033935546875,0.95361328125
2020-08-15 15:38:27.369366,-0.03076171875,-0.0341796875,0.96923828125
2020-08-15 15:38:27.388964,-0.033935546875,-0.017333984375,0.96875
2020-08-15 15:38:27.408365,-0.015869140625,-0.03173828125,0.97265625
2020-08-15 15:38:27.427815,-0.031494140625,-0.033935546875,0.972412109375
2020-08-15 15:38:27.447211,-0.0283203125,-0.03271484375,0.970458984375
2020-08-15 15:38:27.466802,-0.03271484375,-0.033203125,0.97412109375
2020-08-15 15:38:27.486157,-0.03173828125,-0.030029296875,0.972900390625
2020-08-15 15:38:27.505731,-0.017578125,-0.03369140625,0.9658203125
2020-08-15 15:38:27.525151,-0.03466796875,-0.02978515625,0.9677734375
2020-08-15 15:38:27.544517,-0.02880859375,-0.034423828125,0.970947265625
2020-08-15 15:38:27.563995,-0.031005859375,-0.031005859375,0.97265625
2020-08-15 15:38:27.583283,-0.02587890625,-0.03076171875,0.97216796875
2020-08-15 15:38:27.602727,-0.030029296875,-0.03076171875,0.97509765625
2020-08-15 15:38:27.622531,-0.032470703125,-0.03369140625,0.972900390625
2020-08-15 15:38:27.641941,-0.029052734375,-0.030029296875,0.969482421875
2020-08-15 15:38:27.661386,-0.03076171875,-0.032958984375,0.97412109375
2020-08-15 15:38:27.680715,-0.03271484375,-0.031494140625,0.9716796875
2020-08-15 15:38:27.700047,-0.029541015625,-0.03173828125,0.970947265625
2020-08-15 15:38:27.719501,-0.033203125,-0.029296875,0.966796875
2020-08-15 15:38:27.739577,-0.031494140625,-0.02880859375,0.979736328125
2020-08-15 15:38:27.759142,-0.033935546875,-0.02880859375,0.976318359375
2020-08-15 15:38:27.778977,-0.03076171875,-0.0166015625,0.96875
2020-08-15 15:38:27.798342,-0.03125,-0.03173828125,0.982177734375
2020-08-15 15:38:27.817549,-0.031005859375,-0.0322265625,0.972412109375
2020-08-15 15:38:27.837444,-0.031982421875,-0.03564453125,0.97119140625
2020-08-15 15:38:27.856950,-0.029052734375,-0.031982421875,0.97412109375
2020-08-15 15:38:27.876756,-0.031005859375,-0.0322265625,0.97021484375
2020-08-15 15:38:27.895740,-0.030029296875,-0.033935546875,0.973876953125
2020-08-15 15:38:27.915179,-0.0302734375,-0.03369140625,0.984130859375
2020-08-15 15:38:27.934557,-0.016357421875,-0.03369140625,0.9716796875
2020-08-15 15:38:27.953864,-0.02978515625,-0.029296875,0.972412109375
2020-08-15 15:38:27.973164,-0.024169921875,-0.019775390625,0.97021484375
2020-08-15 15:38:27.992533,-0.033203125,-0.0439453125,0.969970703125
2020-08-15 15:38:28.012357,-0.03125,-0.030517578125,0.971923828125
2020-08-15 15:38:28.032108,-0.031494140625,-0.03173828125,0.975830078125
2020-08-15 15:38:28.051819,-0.0302734375,-0.02880859375,0.970703125
2020-08-15 15:38:28.071164,-0.046630859375,-0.03125,0.962890625
2020-08-15 15:38:28.090543,-0.03076171875,-0.029052734375,0.97412109375
2020-08-15 15:38:28.109910,-0.031005859375,-0.031494140625,0.96923828125
2020-08-15 15:38:28.129287,-0.030517578125,-0.033203125,0.974609375
2020-08-15 15:38:28.152809,-0.045654296875,-0.030029296875,0.97265625
2020-08-15 15:38:28.172210,-0.04443359375,-0.015869140625,0.967041015625
2020-08-15 15:38:28.191633,-0.03369140625,-0.030029296875,0.962890625
2020-08-15 15:38:28.210793,-0.032958984375,-0.03369140625,0.967529296875
2020-08-15 15:38:28.230309,-0.02880859375,-0.016845703125,0.975830078125
2020-08-15 15:38:28.249726,-0.033447265625,-0.0302734375,0.971923828125
2020-08-15 15:38:28.269241,-0.029052734375,-0.046142578125,0.9716796875
2020-08-15 15:38:28.288655,-0.03759765625,-0.03173828125,0.9697265625
2020-08-15 15:38:28.308130,-0.027099609375,-0.046630859375,0.97216796875
2020-08-15 15:38:28.327450,-0.03173828125,-0.0302734375,0.973388671875
2020-08-15 15:38:28.347095,-0.029296875,-0.046630859375,0.984130859375
2020-08-15 15:38:28.366393,-0.03076171875,-0.0322265625,0.968994140625
2020-08-15 15:38:28.385849,-0.0322265625,-0.031982421875,0.98388671875
2020-08-15 15:38:28.405117,-0.015869140625,-0.018798828125,0.98095703125
2020-08-15 15:38:28.424435,-0.032470703125,-0.0390625,0.9716796875
2020-08-15 15:38:28.444181,-0.03076171875,-0.030517578125,0.979248046875
2020-08-15 15:38:28.463337,-0.029296875,-0.03271484375,0.969970703125
2020-08-15 15:38:28.482859,-0.033935546875,-0.031982421875,0.969482421875
2020-08-15 15:38:28.502118,-0.029296875,-0.033935546875,0.97509765625
2020-08-15 15:38:28.521342,-0.0380859375,-0.0341796875,0.968994140625
2020-08-15 15:38:28.541059,-0.031005859375,-0.028564453125,0.967041015625
2020-08-15 15:38:28.560821,-0.033935546875,-0.028076171875,0.97021484375
2020-08-15 15:38:28.580211,-0.032958984375,-0.0166015625,0.98388671875
2020-08-15 15:38:28.599924,-0.03076171875,-0.03076171875,0.966552734375
2020-08-15 15:38:28.619327,-0.033935546875,-0.0341796875,0.96435546875
2020-08-15 15:38:28.638810,-0.03466796875,-0.030517578125,0.968994140625
2020-08-15 15:38:28.658277,-0.02978515625,-0.030517578125,0.96826171875
2020-08-15 15:38:28.677682,-0.030029296875,-0.0361328125,0.9677734375
2020-08-15 15:38:28.697112,-0.015869140625,-0.046142578125,0.972900390625
2020-08-15 15:38:28.716476,-0.026611328125,-0.029541015625,0.974853515625
2020-08-15 15:38:28.735749,-0.031005859375,-0.033447265625,0.969482421875
2020-08-15 15:38:28.755330,-0.029541015625,-0.03173828125,0.96875
2020-08-15 15:38:28.774586,-0.02734375,-0.03369140625,0.95654296875
2020-08-15 15:38:28.793817,-0.03076171875,-0.046875,0.972900390625
2020-08-15 15:38:28.813165,-0.03125,-0.028076171875,0.97509765625
2020-08-15 15:38:28.832539,-0.030029296875,-0.0322265625,0.97265625
2020-08-15 15:38:28.852283,-0.016357421875,-0.03173828125,0.981201171875
2020-08-15 15:38:28.871572,-0.03466796875,-0.02880859375,0.9814453125
2020-08-15 15:38:28.891006,-0.03076171875,-0.033203125,0.970947265625
2020-08-15 15:38:28.910345,-0.0283203125,-0.033203125,0.966796875
2020-08-15 15:38:28.929817,-0.029052734375,-0.046142578125,0.97021484375
2020-08-15 15:38:28.949558,-0.028564453125,-0.03759765625,0.97412109375
2020-08-15 15:38:28.968962,-0.0166015625,-0.02685546875,0.970947265625
2020-08-15 15:38:28.988353,-0.02978515625,-0.03076171875,0.97021484375
2020-08-15 15:38:29.008203,-0.015869140625,-0.031982421875,0.969482421875
2020-08-15 15:38:29.028644,-0.0302734375,-0.034423828125,0.970458984375
2020-08-15 15:38:29.048087,-0.046142578125,-0.031494140625,0.966552734375
2020-08-15 15:38:29.067820,-0.027099609375,-0.03076171875,0.965087890625
2020-08-15 15:38:29.086924,-0.02734375,-0.032958984375,0.9697265625
2020-08-15 15:38:29.106603,-0.02783203125,-0.01611328125,0.972412109375
2020-08-15 15:38:29.125797,-0.027587890625,-0.031005859375,0.974853515625
2020-08-15 15:38:29.145215,-0.02880859375,-0.033203125,0.970703125
2020-08-15 15:38:29.164938,-0.03076171875,-0.03271484375,0.965087890625
2020-08-15 15:38:29.185177,-0.0283203125,-0.033935546875,0.9755859375
2020-08-15 15:38:29.204600,-0.029296875,-0.017822265625,0.97265625
2020-08-15 15:38:29.223846,-0.034912109375,-0.028076171875,0.973876953125
2020-08-15 15:38:29.243266,-0.029296875,-0.032958984375,0.97216796875
2020-08-15 15:38:29.263120,-0.030517578125,-0.046875,0.9677734375
2020-08-15 15:38:29.282756,-0.015869140625,-0.030029296875,0.970947265625
2020-08-15 15:38:29.302038,-0.031982421875,-0.03466796875,0.970703125
2020-08-15 15:38:29.321317,-0.028076171875,-0.03369140625,0.974365234375
2020-08-15 15:38:29.340649,-0.046630859375,-0.017578125,0.95458984375
2020-08-15 15:38:29.360371,-0.031005859375,-0.027587890625,0.96923828125
2020-08-15 15:38:29.379759,-0.01611328125,-0.03369140625,0.978271484375
2020-08-15 15:38:29.399186,-0.032958984375,-0.031494140625,0.98193359375
2020-08-15 15:38:29.418801,-0.029296875,-0.02685546875,0.954345703125
2020-08-15 15:38:29.438111,-0.030029296875,-0.031982421875,0.974853515625
2020-08-15 15:38:29.457452,-0.046630859375,-0.015869140625,0.9736328125
2020-08-15 15:38:29.476788,-0.046142578125,-0.033203125,0.97265625
2020-08-15 15:38:29.496203,-0.029541015625,-0.030517578125,0.966796875
2020-08-15 15:38:29.515789,-0.0166015625,-0.031494140625,0.971923828125
2020-08-15 15:38:29.535508,-0.0341796875,-0.033203125,0.970703125
2020-08-15 15:38:29.555127,-0.0283203125,-0.03271484375,0.972900390625
2020-08-15 15:38:29.574625,-0.046630859375,-0.044677734375,0.984130859375
2020-08-15 15:38:29.593874,-0.030517578125,-0.031982421875,0.973876953125
2020-08-15 15:38:29.613124,-0.02978515625,-0.031494140625,0.972412109375
2020-08-15 15:38:29.632615,-0.01708984375,-0.046630859375,0.9619140625
2020-08-15 15:38:29.651909,-0.030029296875,-0.029541015625,0.978515625
2020-08-15 15:38:29.671685,-0.030029296875,-0.018310546875,0.96826171875
2020-08-15 15:38:29.690961,-0.031005859375,-0.03125,0.97119140625
2020-08-15 15:38:29.710254,-0.0458984375,-0.033203125,0.9736328125
2020-08-15 15:38:29.729645,-0.032958984375,-0.03076171875,0.971435546875
2020-08-15 15:38:29.749173,-0.029052734375,-0.03076171875,0.970703125
2020-08-15 15:38:29.768992,-0.0166015625,-0.030029296875,0.970947265625
2020-08-15 15:38:29.788489,-0.032470703125,-0.031982421875,0.975830078125
2020-08-15 15:38:29.807776,-0.031982421875,-0.037109375,0.970947265625
2020-08-15 15:38:29.827368,-0.031982421875,-0.0439453125,0.95361328125
2020-08-15 15:38:29.846780,-0.030029296875,-0.03466796875,0.97021484375
2020-08-15 15:38:29.866238,-0.03271484375,-0.032958984375,0.975830078125
2020-08-15 15:38:29.885791,-0.030029296875,-0.0302734375,0.969970703125
2020-08-15 15:38:29.905379,-0.03125,-0.01611328125,0.97021484375
2020-08-15 15:38:29.924690,-0.029296875,-0.03125,0.9658203125
2020-08-15 15:38:29.943941,-0.03369140625,-0.02978515625,0.96435546875
2020-08-15 15:38:29.963337,-0.0341796875,-0.017333984375,0.972900390625
2020-08-15 15:38:29.982635,-0.0302734375,-0.031494140625,0.970458984375
2020-08-15 15:38:30.002291,-0.02783203125,-0.029541015625,0.967041015625
2020-08-15 15:38:30.021663,-0.027587890625,-0.033935546875,0.970703125
2020-08-15 15:38:30.041013,-0.03369140625,-0.031494140625,0.97119140625
2020-08-15 15:38:30.060507,-0.03173828125,-0.028564453125,0.9833984375
2020-08-15 15:38:30.080129,-0.03271484375,-0.029296875,0.973388671875
2020-08-15 15:38:30.099284,-0.030517578125,-0.032470703125,0.955078125
2020-08-15 15:38:30.118787,-0.027099609375,-0.031982421875,0.9677734375
2020-08-15 15:38:30.138509,-0.026123046875,-0.016845703125,0.96337890625
2020-08-15 15:38:30.157854,-0.03173828125,-0.033935546875,0.975341796875
2020-08-15 15:38:30.177244,-0.031005859375,-0.027587890625,0.9560546875
2020-08-15 15:38:30.197154,-0.03125,-0.034912109375,0.980224609375
2020-08-15 15:38:30.216217,-0.028564453125,-0.016357421875,0.97021484375
2020-08-15 15:38:30.235856,-0.032958984375,-0.02978515625,0.96923828125
2020-08-15 15:38:30.255220,-0.0341796875,-0.033447265625,0.97314453125
2020-08-15 15:38:30.274634,-0.03271484375,-0.034423828125,0.97705078125
2020-08-15 15:38:30.293908,-0.031005859375,-0.032470703125,0.970458984375
